"acc","accuracy","average_response_time","avg_rt","background","bidi","canvas_backend","clock_backend","color_backend","compensation","congruency","coordinates","correct","correct_Introduction","correct_keyboard_response","correct_new_mouse_response","correct_response","count_Gender","count_Introduction","count_Response","count_Target_1","count_block_loop","count_block_sequence","count_end_of_experiment","count_end_of_practice","count_experiment","count_experimental_loop","count_feedback","count_fixation_dot","count_gaze_cue","count_gaze_cue_1","count_gaze_neutral","count_getting_started","count_incorrect_sound","count_instructions","count_keyboard_response","count_logger","count_neutral_gaze","count_new_mouse_response","count_new_sketchpad","count_new_sketchpad_1","count_new_sketchpad_3","count_practice_loop","count_reset_feedback","count_target","count_trial_sequence","count_welcome","cursor_x","cursor_y","datetime","description","disable_garbage_collection","empty_column","experiment_file","experiment_path","font_bold","font_family","font_italic","font_size","font_underline","foreground","form_clicks","form_response","form_var","fullscreen","gender_subject","height","keyboard_backend","live_row","live_row_block_loop","live_row_experimental_loop","logfile","mouse_backend","opensesame_codename","opensesame_version","repeat_cycle","response","response_Introduction","response_feedback","response_keyboard_response","response_new_mouse_response","response_new_sketchpad_1","response_new_sketchpad_3","response_time","response_time_Introduction","response_time_feedback","response_time_keyboard_response","response_time_new_mouse_response","response_time_new_sketchpad_1","response_time_new_sketchpad_3","response_time_welcome","response_welcome","richtung_bild_links","richtung_bild_rechts","round_decimals","sampler_backend","sound_buf_size","sound_channels","sound_freq","sound_sample_size","start","subject_nr","subject_parity","time_Gender","time_Introduction","time_Response","time_Target_1","time_block_loop","time_block_sequence","time_end_of_experiment","time_end_of_practice","time_experiment","time_experimental_loop","time_feedback","time_fixation_dot","time_gaze_cue","time_gaze_cue_1","time_gaze_neutral","time_getting_started","time_incorrect_sound","time_instructions","time_keyboard_response","time_logger","time_neutral_gaze","time_new_mouse_response","time_new_sketchpad","time_new_sketchpad_1","time_new_sketchpad_3","time_practice_loop","time_reset_feedback","time_target","time_trial_sequence","time_welcome","title","total_correct","total_response_time","total_responses","type","uniform_coordinates","width"
"undefined","undefined","undefined","undefined","white","no","psycho","psycho","psycho","0","0","uniform","undefined","undefined","NA","NA","y","0","0","0","0","0","0","NA","NA","0","0","NA","0","NA","NA","NA","NA","NA","NA","NA","0","NA","NA","0","NA","0","NA","0","NA","0","NA","NA","NA","02/20/18 14:00:20","The main experiment item","yes","","Python Experiment.osexp","C:\Users\EfKAy\Desktop","no","mono","no","18","no","black","no","Ok","NA","yes","Male","768","psycho","0","0","0","C:/Users/EfKAy/Desktop/Python Experiment/Data/subject-5.csv","psycho","Jazzy James","3.1.9","0","m","m","NA","NA","NA","NA","NA","1291.72888027","21404.6146794","NA","NA","NA","NA","NA","NA","NA","rechts","rechts","2","legacy","1024","2","48000","-16","experiment","5","odd","NA","6486.28084225","48462.5124662","48367.5765208","47392.2056644","47392.0157515","NA","NA","6408.80251671","47389.9457003","NA","47623.8158029","NA","NA","NA","NA","NA","NA","NA","49754.9938124","NA","NA","48462.3610492","NA","NA","NA","NA","NA","47614.8170086","NA","Tutorial: Gaze cuing","0","0","0","Human","yes","1024"
"undefined","undefined","undefined","undefined","white","no","psycho","psycho","psycho","0","0","uniform","undefined","undefined","NA","NA","m","0","0","1","1","0","0","NA","NA","0","0","NA","1","NA","NA","NA","NA","NA","NA","NA","1","NA","NA","1","NA","0","NA","0","NA","1","NA","NA","NA","02/20/18 14:00:20","The main experiment item","yes","","Python Experiment.osexp","C:\Users\EfKAy\Desktop","no","mono","no","18","no","black","no","Ok","NA","yes","Male","768","psycho","1","1","0","C:/Users/EfKAy/Desktop/Python Experiment/Data/subject-5.csv","psycho","Jazzy James","3.1.9","0","m","m","NA","NA","NA","NA","NA","920.448543598","21404.6146794","NA","NA","NA","NA","NA","NA","NA","rechts","rechts","2","legacy","1024","2","48000","-16","experiment","5","odd","NA","6486.28084225","51330.2560591","51252.7459103","47392.2056644","47392.0157515","NA","NA","6408.80251671","47389.9457003","NA","50508.4739673","NA","NA","NA","NA","NA","NA","NA","52251.4468031","NA","NA","51330.1190138","NA","NA","NA","NA","NA","50483.4531924","NA","Tutorial: Gaze cuing","0","0","0","Greeble","yes","1024"
"undefined","undefined","undefined","undefined","white","no","psycho","psycho","psycho","0","0","uniform","undefined","undefined","NA","NA","y","0","0","2","2","0","0","NA","NA","0","0","NA","2","NA","NA","NA","NA","NA","NA","NA","2","NA","NA","2","NA","0","NA","0","NA","2","NA","NA","NA","02/20/18 14:00:20","The main experiment item","yes","","Python Experiment.osexp","C:\Users\EfKAy\Desktop","no","mono","no","18","no","black","no","Ok","NA","yes","Male","768","psycho","2","2","0","C:/Users/EfKAy/Desktop/Python Experiment/Data/subject-5.csv","psycho","Jazzy James","3.1.9","0","y","m","NA","NA","NA","NA","NA","464.541968453","21404.6146794","NA","NA","NA","NA","NA","NA","NA","links","links","2","legacy","1024","2","48000","-16","experiment","5","odd","NA","6486.28084225","53510.2781404","53415.8493138","47392.2056644","47392.0157515","NA","NA","6408.80251671","47389.9457003","NA","52671.8345232","NA","NA","NA","NA","NA","NA","NA","53975.5617959","NA","NA","53510.1436614","NA","NA","NA","NA","NA","52649.0706327","NA","Tutorial: Gaze cuing","0","0","0","Human","yes","1024"
"undefined","undefined","undefined","undefined","white","no","psycho","psycho","psycho","0","0","uniform","undefined","undefined","NA","NA","m","0","0","3","3","0","0","NA","NA","0","0","NA","3","NA","NA","NA","NA","NA","NA","NA","3","NA","NA","3","NA","0","NA","0","NA","3","NA","NA","NA","02/20/18 14:00:20","The main experiment item","yes","","Python Experiment.osexp","C:\Users\EfKAy\Desktop","no","mono","no","18","no","black","no","Ok","NA","yes","Male","768","psycho","3","3","0","C:/Users/EfKAy/Desktop/Python Experiment/Data/subject-5.csv","psycho","Jazzy James","3.1.9","0","m","m","NA","NA","NA","NA","NA","428.78341249","21404.6146794","NA","NA","NA","NA","NA","NA","NA","links","links","2","legacy","1024","2","48000","-16","experiment","5","odd","NA","6486.28084225","55170.6142042","55092.9403196","47392.2056644","47392.0157515","NA","NA","6408.80251671","47389.9457003","NA","54348.7304832","NA","NA","NA","NA","NA","NA","NA","55600.1572685","NA","NA","55170.4740792","NA","NA","NA","NA","NA","54331.593149","NA","Tutorial: Gaze cuing","0","0","0","Greeble","yes","1024"
"undefined","undefined","undefined","undefined","white","no","psycho","psycho","psycho","0","0","uniform","undefined","undefined","NA","NA","m","0","0","4","4","0","0","NA","NA","0","0","NA","4","NA","NA","NA","NA","NA","NA","NA","4","NA","NA","4","NA","0","NA","0","NA","4","NA","NA","NA","02/20/18 14:00:20","The main experiment item","yes","","Python Experiment.osexp","C:\Users\EfKAy\Desktop","no","mono","no","18","no","black","no","Ok","NA","yes","Male","768","psycho","4","4","0","C:/Users/EfKAy/Desktop/Python Experiment/Data/subject-5.csv","psycho","Jazzy James","3.1.9","0","m","m","NA","NA","NA","NA","NA","404.50894413","21404.6146794","NA","NA","NA","NA","NA","NA","NA","links","links","2","legacy","1024","2","48000","-16","experiment","5","odd","NA","6486.28084225","56813.9828288","56736.0795089","47392.2056644","47392.0157515","NA","NA","6408.80251671","47389.9457003","NA","55992.1478693","NA","NA","NA","NA","NA","NA","NA","57219.2591239","NA","NA","56813.8355179","NA","NA","NA","NA","NA","55972.1803188","NA","Tutorial: Gaze cuing","0","0","0","Greeble","yes","1024"
"undefined","undefined","undefined","undefined","white","no","psycho","psycho","psycho","0","0","uniform","undefined","undefined","NA","NA","y","0","0","5","5","0","0","NA","NA","0","0","NA","5","NA","NA","NA","NA","NA","NA","NA","5","NA","NA","5","NA","0","NA","0","NA","5","NA","NA","NA","02/20/18 14:00:20","The main experiment item","yes","","Python Experiment.osexp","C:\Users\EfKAy\Desktop","no","mono","no","18","no","black","no","Ok","NA","yes","Male","768","psycho","5","5","0","C:/Users/EfKAy/Desktop/Python Experiment/Data/subject-5.csv","psycho","Jazzy James","3.1.9","0","y","m","NA","NA","NA","NA","NA","450.326213993","21404.6146794","NA","NA","NA","NA","NA","NA","NA","links","links","2","legacy","1024","2","48000","-16","experiment","5","odd","NA","6486.28084225","58440.7592207","58346.1517733","47392.2056644","47392.0157515","NA","NA","6408.80251671","47389.9457003","NA","57602.2314259","NA","NA","NA","NA","NA","NA","NA","58891.8481661","NA","NA","58440.6242285","NA","NA","NA","NA","NA","57582.2772206","NA","Tutorial: Gaze cuing","0","0","0","Human","yes","1024"
"undefined","undefined","undefined","undefined","white","no","psycho","psycho","psycho","0","0","uniform","undefined","undefined","NA","NA","m","0","0","6","6","0","0","NA","NA","0","0","NA","6","NA","NA","NA","NA","NA","NA","NA","6","NA","NA","6","NA","0","NA","0","NA","6","NA","NA","NA","02/20/18 14:00:20","The main experiment item","yes","","Python Experiment.osexp","C:\Users\EfKAy\Desktop","no","mono","no","18","no","black","no","Ok","NA","yes","Male","768","psycho","6","6","0","C:/Users/EfKAy/Desktop/Python Experiment/Data/subject-5.csv","psycho","Jazzy James","3.1.9","0","m","m","NA","NA","NA","NA","NA","375.360385493","21404.6146794","NA","NA","NA","NA","NA","NA","NA","links","links","2","legacy","1024","2","48000","-16","experiment","5","odd","NA","6486.28084225","60084.1760934","60006.2245254","47392.2056644","47392.0157515","NA","NA","6408.80251671","47389.9457003","NA","59262.4191523","NA","NA","NA","NA","NA","NA","NA","60460.2935644","NA","NA","60084.0344287","NA","NA","NA","NA","NA","59246.6774216","NA","Tutorial: Gaze cuing","0","0","0","Greeble","yes","1024"
"undefined","undefined","undefined","undefined","white","no","psycho","psycho","psycho","0","0","uniform","undefined","undefined","NA","NA","y","0","0","7","7","0","0","NA","NA","0","0","NA","7","NA","NA","NA","NA","NA","NA","NA","7","NA","NA","7","NA","0","NA","0","NA","7","NA","NA","NA","02/20/18 14:00:20","The main experiment item","yes","","Python Experiment.osexp","C:\Users\EfKAy\Desktop","no","mono","no","18","no","black","no","Ok","NA","yes","Male","768","psycho","7","7","0","C:/Users/EfKAy/Desktop/Python Experiment/Data/subject-5.csv","psycho","Jazzy James","3.1.9","0","y","m","NA","NA","NA","NA","NA","454.234314601","21404.6146794","NA","NA","NA","NA","NA","NA","NA","links","links","2","legacy","1024","2","48000","-16","experiment","5","odd","NA","6486.28084225","61660.5685789","61566.3558425","47392.2056644","47392.0157515","NA","NA","6408.80251671","47389.9457003","NA","60821.9976687","NA","NA","NA","NA","NA","NA","NA","62115.5517664","NA","NA","61660.4330734","NA","NA","NA","NA","NA","60811.2373034","NA","Tutorial: Gaze cuing","0","0","0","Human","yes","1024"
"undefined","undefined","undefined","undefined","white","no","psycho","psycho","psycho","0","0","uniform","undefined","undefined","NA","NA","y","0","0","8","8","0","0","NA","NA","0","0","NA","8","NA","NA","NA","NA","NA","NA","NA","8","NA","NA","8","NA","0","NA","0","NA","8","NA","NA","NA","02/20/18 14:00:20","The main experiment item","yes","","Python Experiment.osexp","C:\Users\EfKAy\Desktop","no","mono","no","18","no","black","no","Ok","NA","yes","Male","768","psycho","8","8","0","C:/Users/EfKAy/Desktop/Python Experiment/Data/subject-5.csv","psycho","Jazzy James","3.1.9","0","y","m","NA","NA","NA","NA","NA","463.845963144","21404.6146794","NA","NA","NA","NA","NA","NA","NA","rechts","rechts","2","legacy","1024","2","48000","-16","experiment","5","odd","NA","6486.28084225","63320.8959169","63226.405497","47392.2056644","47392.0157515","NA","NA","6408.80251671","47389.9457003","NA","62482.1371469","NA","NA","NA","NA","NA","NA","NA","63785.490753","NA","NA","63320.7588716","NA","NA","NA","NA","NA","62474.0766253","NA","Tutorial: Gaze cuing","0","0","0","Human","yes","1024"
"undefined","undefined","undefined","undefined","white","no","psycho","psycho","psycho","0","0","uniform","undefined","undefined","NA","NA","m","0","0","9","9","0","0","NA","NA","0","0","NA","9","NA","NA","NA","NA","NA","NA","NA","9","NA","NA","9","NA","0","NA","0","NA","9","NA","NA","NA","02/20/18 14:00:20","The main experiment item","yes","","Python Experiment.osexp","C:\Users\EfKAy\Desktop","no","mono","no","18","no","black","no","Ok","NA","yes","Male","768","psycho","9","9","0","C:/Users/EfKAy/Desktop/Python Experiment/Data/subject-5.csv","psycho","Jazzy James","3.1.9","0","m","m","NA","NA","NA","NA","NA","369.358109616","21404.6146794","NA","NA","NA","NA","NA","NA","NA","rechts","rechts","2","legacy","1024","2","48000","-16","experiment","5","odd","NA","6486.28084225","64997.8514172","64919.5308021","47392.2056644","47392.0157515","NA","NA","6408.80251671","47389.9457003","NA","64175.9415191","NA","NA","NA","NA","NA","NA","NA","65367.9471077","NA","NA","64997.7138587","NA","NA","NA","NA","NA","64152.1141161","NA","Tutorial: Gaze cuing","0","0","0","Greeble","yes","1024"
"undefined","undefined","undefined","undefined","white","no","psycho","psycho","psycho","0","0","uniform","undefined","undefined","NA","NA","y","0","0","10","10","0","0","NA","NA","0","0","NA","10","NA","NA","NA","NA","NA","NA","NA","10","NA","NA","10","NA","0","NA","0","NA","10","NA","NA","NA","02/20/18 14:00:20","The main experiment item","yes","","Python Experiment.osexp","C:\Users\EfKAy\Desktop","no","mono","no","18","no","black","no","Ok","NA","yes","Male","768","psycho","10","10","0","C:/Users/EfKAy/Desktop/Python Experiment/Data/subject-5.csv","psycho","Jazzy James","3.1.9","0","y","m","NA","NA","NA","NA","NA","367.851637948","21404.6146794","NA","NA","NA","NA","NA","NA","NA","rechts","rechts","2","legacy","1024","2","48000","-16","experiment","5","odd","NA","6486.28084225","66574.2274777","66479.6107914","47392.2056644","47392.0157515","NA","NA","6408.80251671","47389.9457003","NA","65735.7448514","NA","NA","NA","NA","NA","NA","NA","66966.9510399","NA","NA","66574.0883793","NA","NA","NA","NA","NA","65725.389976","NA","Tutorial: Gaze cuing","0","0","0","Human","yes","1024"
"undefined","undefined","undefined","undefined","white","no","psycho","psycho","psycho","0","1","uniform","undefined","undefined","NA","NA","m","0","0","11","11","0","0","NA","NA","0","0","NA","11","NA","NA","NA","NA","NA","NA","NA","11","NA","NA","11","NA","0","NA","0","NA","11","NA","NA","NA","02/20/18 14:00:20","The main experiment item","yes","","Python Experiment.osexp","C:\Users\EfKAy\Desktop","no","mono","no","18","no","black","no","Ok","NA","yes","Male","768","psycho","11","11","0","C:/Users/EfKAy/Desktop/Python Experiment/Data/subject-5.csv","psycho","Jazzy James","3.1.9","0","m","m","NA","NA","NA","NA","NA","399.400798969","21404.6146794","NA","NA","NA","NA","NA","NA","NA","rechts","links","2","legacy","1024","2","48000","-16","experiment","5","odd","NA","6486.28084225","68150.5701751","68072.6837934","47392.2056644","47392.0157515","NA","NA","6408.80251671","47389.9457003","NA","67328.8158003","NA","NA","NA","NA","NA","NA","NA","68550.7162541","NA","NA","68150.4321033","NA","NA","NA","NA","NA","67315.49315","NA","Tutorial: Gaze cuing","0","0","0","Greeble","yes","1024"
"undefined","undefined","undefined","undefined","white","no","psycho","psycho","psycho","0","1","uniform","undefined","undefined","NA","NA","y","0","0","12","12","0","0","NA","NA","0","0","NA","12","NA","NA","NA","NA","NA","NA","NA","12","NA","NA","12","NA","0","NA","0","NA","12","NA","NA","NA","02/20/18 14:00:20","The main experiment item","yes","","Python Experiment.osexp","C:\Users\EfKAy\Desktop","no","mono","no","18","no","black","no","Ok","NA","yes","Male","768","psycho","12","12","0","C:/Users/EfKAy/Desktop/Python Experiment/Data/subject-5.csv","psycho","Jazzy James","3.1.9","0","y","m","NA","NA","NA","NA","NA","442.121974417","21404.6146794","NA","NA","NA","NA","NA","NA","NA","rechts","links","2","legacy","1024","2","48000","-16","experiment","5","odd","NA","6486.28084225","69743.7637976","69648.7698517","47392.2056644","47392.0157515","NA","NA","6408.80251671","47389.9457003","NA","68905.1780023","NA","NA","NA","NA","NA","NA","NA","70186.6238661","NA","NA","69743.6241859","NA","NA","NA","NA","NA","68897.9120354","NA","Tutorial: Gaze cuing","0","0","0","Human","yes","1024"
"undefined","undefined","undefined","undefined","white","no","psycho","psycho","psycho","0","0","uniform","undefined","undefined","NA","NA","m","0","0","13","13","0","0","NA","NA","0","0","NA","13","NA","NA","NA","NA","NA","NA","NA","13","NA","NA","13","NA","0","NA","0","NA","13","NA","NA","NA","02/20/18 14:00:20","The main experiment item","yes","","Python Experiment.osexp","C:\Users\EfKAy\Desktop","no","mono","no","18","no","black","no","Ok","NA","yes","Male","768","psycho","13","13","0","C:/Users/EfKAy/Desktop/Python Experiment/Data/subject-5.csv","psycho","Jazzy James","3.1.9","0","m","m","NA","NA","NA","NA","NA","441.54864261","21404.6146794","NA","NA","NA","NA","NA","NA","NA","links","links","2","legacy","1024","2","48000","-16","experiment","5","odd","NA","6486.28084225","71404.0100377","71325.8731761","47392.2056644","47392.0157515","NA","NA","6408.80251671","47389.9457003","NA","70582.2094678","NA","NA","NA","NA","NA","NA","NA","71846.2936947","NA","NA","71403.870426","NA","NA","NA","NA","NA","70569.5710174","NA","Tutorial: Gaze cuing","0","0","0","Greeble","yes","1024"
"undefined","undefined","undefined","undefined","white","no","psycho","psycho","psycho","0","0","uniform","undefined","undefined","NA","NA","y","0","0","14","14","0","0","NA","NA","0","0","NA","14","NA","NA","NA","NA","NA","NA","NA","14","NA","NA","14","NA","0","NA","0","NA","14","NA","NA","NA","02/20/18 14:00:20","The main experiment item","yes","","Python Experiment.osexp","C:\Users\EfKAy\Desktop","no","mono","no","18","no","black","no","Ok","NA","yes","Male","768","psycho","14","14","0","C:/Users/EfKAy/Desktop/Python Experiment/Data/subject-5.csv","psycho","Jazzy James","3.1.9","0","y","m","NA","NA","NA","NA","NA","314.162219538","21404.6146794","NA","NA","NA","NA","NA","NA","NA","links","links","2","legacy","1024","2","48000","-16","experiment","5","odd","NA","6486.28084225","73047.4597603","72952.9826856","47392.2056644","47392.0157515","NA","NA","6408.80251671","47389.9457003","NA","72208.9063016","NA","NA","NA","NA","NA","NA","NA","73362.3641802","NA","NA","73047.3237415","NA","NA","NA","NA","NA","72200.4248917","NA","Tutorial: Gaze cuing","0","0","0","Human","yes","1024"
"undefined","undefined","undefined","undefined","white","no","psycho","psycho","psycho","0","0","uniform","undefined","undefined","NA","NA","y","0","0","15","15","0","0","NA","NA","0","0","NA","15","NA","NA","NA","NA","NA","NA","NA","15","NA","NA","15","NA","0","NA","0","NA","15","NA","NA","NA","02/20/18 14:00:20","The main experiment item","yes","","Python Experiment.osexp","C:\Users\EfKAy\Desktop","no","mono","no","18","no","black","no","Ok","NA","yes","Male","768","psycho","15","15","0","C:/Users/EfKAy/Desktop/Python Experiment/Data/subject-5.csv","psycho","Jazzy James","3.1.9","0","y","m","NA","NA","NA","NA","NA","384.467994791","21404.6146794","NA","NA","NA","NA","NA","NA","NA","links","rechts","2","legacy","1024","2","48000","-16","experiment","5","odd","NA","6486.28084225","74556.7544595","74462.0638611","47392.2056644","47392.0157515","NA","NA","6408.80251671","47389.9457003","NA","73718.2133195","NA","NA","NA","NA","NA","NA","NA","74941.985699","NA","NA","74556.6174142","NA","NA","NA","NA","NA","73701.5050858","NA","Tutorial: Gaze cuing","0","0","0","Human","yes","1024"
"undefined","undefined","undefined","undefined","white","no","psycho","psycho","psycho","0","0","uniform","undefined","undefined","NA","NA","y","0","0","16","16","0","0","NA","NA","0","0","NA","16","NA","NA","NA","NA","NA","NA","NA","16","NA","NA","16","NA","0","NA","0","NA","16","NA","NA","NA","02/20/18 14:00:20","The main experiment item","yes","","Python Experiment.osexp","C:\Users\EfKAy\Desktop","no","mono","no","18","no","black","no","Ok","NA","yes","Male","768","psycho","16","16","0","C:/Users/EfKAy/Desktop/Python Experiment/Data/subject-5.csv","psycho","Jazzy James","3.1.9","0","y","m","NA","NA","NA","NA","NA","384.671766257","21404.6146794","NA","NA","NA","NA","NA","NA","NA","links","rechts","2","legacy","1024","2","48000","-16","experiment","5","odd","NA","6486.28084225","76149.9311437","76055.1522614","47392.2056644","47392.0157515","NA","NA","6408.80251671","47389.9457003","NA","75311.2847817","NA","NA","NA","NA","NA","NA","NA","76536.4969067","NA","NA","76149.7956383","NA","NA","NA","NA","NA","75291.7145085","NA","Tutorial: Gaze cuing","0","0","0","Human","yes","1024"
"undefined","undefined","undefined","undefined","white","no","psycho","psycho","psycho","0","0","uniform","undefined","undefined","NA","NA","m","0","0","17","17","0","0","NA","NA","0","0","NA","17","NA","NA","NA","NA","NA","NA","NA","17","NA","NA","17","NA","0","NA","0","NA","17","NA","NA","NA","02/20/18 14:00:20","The main experiment item","yes","","Python Experiment.osexp","C:\Users\EfKAy\Desktop","no","mono","no","18","no","black","no","Ok","NA","yes","Male","768","psycho","17","17","0","C:/Users/EfKAy/Desktop/Python Experiment/Data/subject-5.csv","psycho","Jazzy James","3.1.9","0","m","m","NA","NA","NA","NA","NA","396.386315796","21404.6146794","NA","NA","NA","NA","NA","NA","NA","links","rechts","2","legacy","1024","2","48000","-16","experiment","5","odd","NA","6486.28084225","77743.1011553","77665.2440304","47392.2056644","47392.0157515","NA","NA","6408.80251671","47389.9457003","NA","76921.354993","NA","NA","NA","NA","NA","NA","NA","78140.265601","NA","NA","77742.96411","NA","NA","NA","NA","NA","76900.4086208","NA","Tutorial: Gaze cuing","0","0","0","Greeble","yes","1024"
"undefined","undefined","undefined","undefined","white","no","psycho","psycho","psycho","0","1","uniform","undefined","undefined","NA","NA","m","0","0","18","18","0","0","NA","NA","0","0","NA","18","NA","NA","NA","NA","NA","NA","NA","18","NA","NA","18","NA","0","NA","0","NA","18","NA","NA","NA","02/20/18 14:00:20","The main experiment item","yes","","Python Experiment.osexp","C:\Users\EfKAy\Desktop","no","mono","no","18","no","black","no","Ok","NA","yes","Male","768","psycho","18","18","0","C:/Users/EfKAy/Desktop/Python Experiment/Data/subject-5.csv","psycho","Jazzy James","3.1.9","0","m","m","NA","NA","NA","NA","NA","320.768623916","21404.6146794","NA","NA","NA","NA","NA","NA","NA","rechts","links","2","legacy","1024","2","48000","-16","experiment","5","odd","NA","6486.28084225","79319.4659237","79241.4691871","47392.2056644","47392.0157515","NA","NA","6408.80251671","47389.9457003","NA","78497.7069294","NA","NA","NA","NA","NA","NA","NA","79640.9936862","NA","NA","79319.3293917","NA","NA","NA","NA","NA","78478.8562723","NA","Tutorial: Gaze cuing","0","0","0","Greeble","yes","1024"
"undefined","undefined","undefined","undefined","white","no","psycho","psycho","psycho","0","0","uniform","undefined","undefined","NA","NA","m","0","0","19","19","0","0","NA","NA","0","0","NA","19","NA","NA","NA","NA","NA","NA","NA","19","NA","NA","19","NA","0","NA","0","NA","19","NA","NA","NA","02/20/18 14:00:20","The main experiment item","yes","","Python Experiment.osexp","C:\Users\EfKAy\Desktop","no","mono","no","18","no","black","no","Ok","NA","yes","Male","768","psycho","19","19","0","C:/Users/EfKAy/Desktop/Python Experiment/Data/subject-5.csv","psycho","Jazzy James","3.1.9","0","m","m","NA","NA","NA","NA","NA","310.413748466","21404.6146794","NA","NA","NA","NA","NA","NA","NA","rechts","rechts","2","legacy","1024","2","48000","-16","experiment","5","odd","NA","6486.28084225","80812.1288677","80734.4719214","47392.2056644","47392.0157515","NA","NA","6408.80251671","47389.9457003","NA","79990.3478025","NA","NA","NA","NA","NA","NA","NA","81123.3541091","NA","NA","80811.992849","NA","NA","NA","NA","NA","79978.1035498","NA","Tutorial: Gaze cuing","0","0","0","Greeble","yes","1024"
"undefined","undefined","undefined","undefined","white","no","psycho","psycho","psycho","0","0","uniform","undefined","undefined","NA","NA","m","0","0","20","20","0","0","NA","NA","0","0","NA","20","NA","NA","NA","NA","NA","NA","NA","20","NA","NA","20","NA","0","NA","0","NA","20","NA","NA","NA","02/20/18 14:00:20","The main experiment item","yes","","Python Experiment.osexp","C:\Users\EfKAy\Desktop","no","mono","no","18","no","black","no","Ok","NA","yes","Male","768","psycho","20","20","0","C:/Users/EfKAy/Desktop/Python Experiment/Data/subject-5.csv","psycho","Jazzy James","3.1.9","0","m","m","NA","NA","NA","NA","NA","311.200604026","21404.6146794","NA","NA","NA","NA","NA","NA","NA","links","rechts","2","legacy","1024","2","48000","-16","experiment","5","odd","NA","6486.28084225","82304.6193503","82226.4753028","47392.2056644","47392.0157515","NA","NA","6408.80251671","47389.9457003","NA","81482.770019","NA","NA","NA","NA","NA","NA","NA","82616.5626679","NA","NA","82304.4807652","NA","NA","NA","NA","NA","81472.9540857","NA","Tutorial: Gaze cuing","0","0","0","Greeble","yes","1024"
"undefined","undefined","undefined","undefined","white","no","psycho","psycho","psycho","0","0","uniform","undefined","undefined","NA","NA","m","0","0","21","21","0","0","NA","NA","0","0","NA","21","NA","NA","NA","NA","NA","NA","NA","21","NA","NA","21","NA","0","NA","0","NA","21","NA","NA","NA","02/20/18 14:00:20","The main experiment item","yes","","Python Experiment.osexp","C:\Users\EfKAy\Desktop","no","mono","no","18","no","black","no","Ok","NA","yes","Male","768","psycho","21","21","0","C:/Users/EfKAy/Desktop/Python Experiment/Data/subject-5.csv","psycho","Jazzy James","3.1.9","0","m","m","NA","NA","NA","NA","NA","299.776569977","21404.6146794","NA","NA","NA","NA","NA","NA","NA","links","rechts","2","legacy","1024","2","48000","-16","experiment","5","odd","NA","6486.28084225","83813.9212354","83735.5800891","47392.2056644","47392.0157515","NA","NA","6408.80251671","47389.9457003","NA","82991.9969655","NA","NA","NA","NA","NA","NA","NA","84114.4410323","NA","NA","83813.7847034","NA","NA","NA","NA","NA","82972.8111377","NA","Tutorial: Gaze cuing","0","0","0","Greeble","yes","1024"
"undefined","undefined","undefined","undefined","white","no","psycho","psycho","psycho","0","0","uniform","undefined","undefined","NA","NA","y","0","0","22","22","0","0","NA","NA","0","0","NA","22","NA","NA","NA","NA","NA","NA","NA","22","NA","NA","22","NA","0","NA","0","NA","22","NA","NA","NA","02/20/18 14:00:20","The main experiment item","yes","","Python Experiment.osexp","C:\Users\EfKAy\Desktop","no","mono","no","18","no","black","no","Ok","NA","yes","Male","768","psycho","22","22","0","C:/Users/EfKAy/Desktop/Python Experiment/Data/subject-5.csv","psycho","Jazzy James","3.1.9","0","y","m","NA","NA","NA","NA","NA","317.538563878","21404.6146794","NA","NA","NA","NA","NA","NA","NA","links","rechts","2","legacy","1024","2","48000","-16","experiment","5","odd","NA","6486.28084225","85323.2482712","85228.6536557","47392.2056644","47392.0157515","NA","NA","6408.80251671","47389.9457003","NA","84484.5711124","NA","NA","NA","NA","NA","NA","NA","85641.5659914","NA","NA","85323.1091727","NA","NA","NA","NA","NA","84466.4739478","NA","Tutorial: Gaze cuing","0","0","0","Human","yes","1024"
"undefined","undefined","undefined","undefined","white","no","psycho","psycho","psycho","0","1","uniform","undefined","undefined","NA","NA","y","0","0","23","23","0","0","NA","NA","0","0","NA","23","NA","NA","NA","NA","NA","NA","NA","23","NA","NA","23","NA","0","NA","0","NA","23","NA","NA","NA","02/20/18 14:00:20","The main experiment item","yes","","Python Experiment.osexp","C:\Users\EfKAy\Desktop","no","mono","no","18","no","black","no","Ok","NA","yes","Male","768","psycho","23","23","0","C:/Users/EfKAy/Desktop/Python Experiment/Data/subject-5.csv","psycho","Jazzy James","3.1.9","0","y","m","NA","NA","NA","NA","NA","350.671701584","21404.6146794","NA","NA","NA","NA","NA","NA","NA","rechts","links","2","legacy","1024","2","48000","-16","experiment","5","odd","NA","6486.28084225","86866.0990494","86771.7492677","47392.2056644","47392.0157515","NA","NA","6408.80251671","47389.9457003","NA","86027.4532006","NA","NA","NA","NA","NA","NA","NA","87217.5021725","NA","NA","86865.9635439","NA","NA","NA","NA","NA","86007.4178973","NA","Tutorial: Gaze cuing","0","0","0","Human","yes","1024"
"undefined","undefined","undefined","undefined","white","no","psycho","psycho","psycho","0","1","uniform","undefined","undefined","NA","NA","y","0","0","24","24","0","0","NA","NA","0","0","NA","24","NA","NA","NA","NA","NA","NA","NA","24","NA","NA","24","NA","0","NA","0","NA","24","NA","NA","NA","02/20/18 14:00:20","The main experiment item","yes","","Python Experiment.osexp","C:\Users\EfKAy\Desktop","no","mono","no","18","no","black","no","Ok","NA","yes","Male","768","psycho","24","24","0","C:/Users/EfKAy/Desktop/Python Experiment/Data/subject-5.csv","psycho","Jazzy James","3.1.9","0","y","m","NA","NA","NA","NA","NA","302.009330372","21404.6146794","NA","NA","NA","NA","NA","NA","NA","rechts","links","2","legacy","1024","2","48000","-16","experiment","5","odd","NA","6486.28084225","88425.7155484","88330.8488955","47392.2056644","47392.0157515","NA","NA","6408.80251671","47389.9457003","NA","87587.0938237","NA","NA","NA","NA","NA","NA","NA","88728.4737517","NA","NA","88425.5769633","NA","NA","NA","NA","NA","87564.6363603","NA","Tutorial: Gaze cuing","0","0","0","Human","yes","1024"
"undefined","undefined","undefined","undefined","white","no","psycho","psycho","psycho","0","1","uniform","undefined","undefined","NA","NA","y","0","0","25","25","0","0","NA","NA","0","0","NA","25","NA","NA","NA","NA","NA","NA","NA","25","NA","NA","25","NA","0","NA","0","NA","25","NA","NA","NA","02/20/18 14:00:20","The main experiment item","yes","","Python Experiment.osexp","C:\Users\EfKAy\Desktop","no","mono","no","18","no","black","no","Ok","NA","yes","Male","768","psycho","25","25","0","C:/Users/EfKAy/Desktop/Python Experiment/Data/subject-5.csv","psycho","Jazzy James","3.1.9","0","y","m","NA","NA","NA","NA","NA","299.535329199","21404.6146794","NA","NA","NA","NA","NA","NA","NA","rechts","links","2","legacy","1024","2","48000","-16","experiment","5","odd","NA","6486.28084225","89935.0205132","89839.9572747","47392.2056644","47392.0157515","NA","NA","6408.80251671","47389.9457003","NA","89096.331549","NA","NA","NA","NA","NA","NA","NA","90235.307795","NA","NA","89934.8834679","NA","NA","NA","NA","NA","89081.7354554","NA","Tutorial: Gaze cuing","0","0","0","Human","yes","1024"
"undefined","undefined","undefined","undefined","white","no","psycho","psycho","psycho","0","1","uniform","undefined","undefined","NA","NA","m","0","0","26","26","0","0","NA","NA","0","0","NA","26","NA","NA","NA","NA","NA","NA","NA","26","NA","NA","26","NA","0","NA","0","NA","26","NA","NA","NA","02/20/18 14:00:20","The main experiment item","yes","","Python Experiment.osexp","C:\Users\EfKAy\Desktop","no","mono","no","18","no","black","no","Ok","NA","yes","Male","768","psycho","26","26","0","C:/Users/EfKAy/Desktop/Python Experiment/Data/subject-5.csv","psycho","Jazzy James","3.1.9","0","m","m","NA","NA","NA","NA","NA","328.520665353","21404.6146794","NA","NA","NA","NA","NA","NA","NA","rechts","links","2","legacy","1024","2","48000","-16","experiment","5","odd","NA","6486.28084225","91427.4781459","91350.0203515","47392.2056644","47392.0157515","NA","NA","6408.80251671","47389.9457003","NA","90605.7135055","NA","NA","NA","NA","NA","NA","NA","91756.7379319","NA","NA","91427.3411006","NA","NA","NA","NA","NA","90582.7489233","NA","Tutorial: Gaze cuing","0","0","0","Greeble","yes","1024"
"undefined","undefined","undefined","undefined","white","no","psycho","psycho","psycho","0","0","uniform","undefined","undefined","NA","NA","m","0","0","27","27","0","0","NA","NA","0","0","NA","27","NA","NA","NA","NA","NA","NA","NA","27","NA","NA","27","NA","0","NA","0","NA","27","NA","NA","NA","02/20/18 14:00:20","The main experiment item","yes","","Python Experiment.osexp","C:\Users\EfKAy\Desktop","no","mono","no","18","no","black","no","Ok","NA","yes","Male","768","psycho","27","27","0","C:/Users/EfKAy/Desktop/Python Experiment/Data/subject-5.csv","psycho","Jazzy James","3.1.9","0","m","m","NA","NA","NA","NA","NA","334.869917326","21404.6146794","NA","NA","NA","NA","NA","NA","NA","rechts","rechts","2","legacy","1024","2","48000","-16","experiment","5","odd","NA","6486.28084225","92953.6776643","92875.1322333","47392.2056644","47392.0157515","NA","NA","6408.80251671","47389.9457003","NA","92131.691801","NA","NA","NA","NA","NA","NA","NA","93289.3036405","NA","NA","92953.5395925","NA","NA","NA","NA","NA","92116.7754218","NA","Tutorial: Gaze cuing","0","0","0","Greeble","yes","1024"
"undefined","undefined","undefined","undefined","white","no","psycho","psycho","psycho","0","0","uniform","undefined","undefined","NA","NA","m","0","0","28","28","0","0","NA","NA","0","0","NA","28","NA","NA","NA","NA","NA","NA","NA","28","NA","NA","28","NA","0","NA","0","NA","28","NA","NA","NA","02/20/18 14:00:20","The main experiment item","yes","","Python Experiment.osexp","C:\Users\EfKAy\Desktop","no","mono","no","18","no","black","no","Ok","NA","yes","Male","768","psycho","28","28","0","C:/Users/EfKAy/Desktop/Python Experiment/Data/subject-5.csv","psycho","Jazzy James","3.1.9","0","m","m","NA","NA","NA","NA","NA","277.152291197","21404.6146794","NA","NA","NA","NA","NA","NA","NA","links","rechts","2","legacy","1024","2","48000","-16","experiment","5","odd","NA","6486.28084225","94496.4632562","94418.2088539","47392.2056644","47392.0157515","NA","NA","6408.80251671","47389.9457003","NA","93674.5559245","NA","NA","NA","NA","NA","NA","NA","94774.4008631","NA","NA","94496.3262109","NA","NA","NA","NA","NA","93656.1405274","NA","Tutorial: Gaze cuing","0","0","0","Greeble","yes","1024"
"undefined","undefined","undefined","undefined","white","no","psycho","psycho","psycho","0","1","uniform","undefined","undefined","NA","NA","m","0","0","29","29","0","0","NA","NA","0","0","NA","29","NA","NA","NA","NA","NA","NA","NA","29","NA","NA","29","NA","0","NA","0","NA","29","NA","NA","NA","02/20/18 14:00:20","The main experiment item","yes","","Python Experiment.osexp","C:\Users\EfKAy\Desktop","no","mono","no","18","no","black","no","Ok","NA","yes","Male","768","psycho","29","29","0","C:/Users/EfKAy/Desktop/Python Experiment/Data/subject-5.csv","psycho","Jazzy James","3.1.9","0","m","m","NA","NA","NA","NA","NA","290.010424681","21404.6146794","NA","NA","NA","NA","NA","NA","NA","rechts","links","2","legacy","1024","2","48000","-16","experiment","5","odd","NA","6486.28084225","95955.4618195","95877.3306041","47392.2056644","47392.0157515","NA","NA","6408.80251671","47389.9457003","NA","95133.6376389","NA","NA","NA","NA","NA","NA","NA","96246.222657","NA","NA","95955.3201547","NA","NA","NA","NA","NA","95116.571137","NA","Tutorial: Gaze cuing","0","0","0","Greeble","yes","1024"
"undefined","undefined","undefined","undefined","white","no","psycho","psycho","psycho","0","0","uniform","undefined","undefined","NA","NA","y","0","0","30","30","0","0","NA","NA","0","0","NA","30","NA","NA","NA","NA","NA","NA","NA","30","NA","NA","30","NA","0","NA","0","NA","30","NA","NA","NA","02/20/18 14:00:20","The main experiment item","yes","","Python Experiment.osexp","C:\Users\EfKAy\Desktop","no","mono","no","18","no","black","no","Ok","NA","yes","Male","768","psycho","30","30","0","C:/Users/EfKAy/Desktop/Python Experiment/Data/subject-5.csv","psycho","Jazzy James","3.1.9","0","y","m","NA","NA","NA","NA","NA","340.717696448","21404.6146794","NA","NA","NA","NA","NA","NA","NA","rechts","rechts","2","legacy","1024","2","48000","-16","experiment","5","odd","NA","6486.28084225","97448.0231345","97353.3746249","47392.2056644","47392.0157515","NA","NA","6408.80251671","47389.9457003","NA","96609.3767724","NA","NA","NA","NA","NA","NA","NA","97789.5076686","NA","NA","97447.887629","NA","NA","NA","NA","NA","96593.0422053","NA","Tutorial: Gaze cuing","0","0","0","Human","yes","1024"
"undefined","undefined","undefined","undefined","white","no","psycho","psycho","psycho","0","0","uniform","undefined","undefined","NA","NA","y","0","0","31","31","0","0","NA","NA","0","0","NA","31","NA","NA","NA","NA","NA","NA","NA","31","NA","NA","31","NA","0","NA","0","NA","31","NA","NA","NA","02/20/18 14:00:20","The main experiment item","yes","","Python Experiment.osexp","C:\Users\EfKAy\Desktop","no","mono","no","18","no","black","no","Ok","NA","yes","Male","768","psycho","31","31","0","C:/Users/EfKAy/Desktop/Python Experiment/Data/subject-5.csv","psycho","Jazzy James","3.1.9","0","y","m","NA","NA","NA","NA","NA","311.944344213","21404.6146794","NA","NA","NA","NA","NA","NA","NA","links","rechts","2","legacy","1024","2","48000","-16","experiment","5","odd","NA","6486.28084225","99007.7366431","98912.4295975","47392.2056644","47392.0157515","NA","NA","6408.80251671","47389.9457003","NA","98168.9311648","NA","NA","NA","NA","NA","NA","NA","99320.4442321","NA","NA","99007.5990845","NA","NA","NA","NA","NA","98148.1403159","NA","Tutorial: Gaze cuing","0","0","0","Human","yes","1024"
"undefined","undefined","undefined","undefined","white","no","psycho","psycho","psycho","0","0","uniform","undefined","undefined","NA","NA","y","0","0","32","32","1","1","NA","NA","0","0","NA","32","NA","NA","NA","NA","NA","NA","NA","32","NA","NA","32","NA","0","NA","1","NA","32","NA","NA","NA","02/20/18 14:00:20","The main experiment item","yes","","Python Experiment.osexp","C:\Users\EfKAy\Desktop","no","mono","no","18","no","black","no","Ok","NA","yes","Male","768","psycho","0","0","1","C:/Users/EfKAy/Desktop/Python Experiment/Data/subject-5.csv","psycho","Jazzy James","3.1.9","0","y","m","NA","NA","NA","NA","NA","310.937292283","21404.6146794","NA","NA","NA","NA","NA","NA","NA","rechts","rechts","2","legacy","1024","2","48000","-16","experiment","5","odd","NA","6486.28084225","100617.53379","100522.542411","99565.3713748","99565.0243987","NA","NA","6408.80251671","47389.9457003","NA","99778.8864018","NA","NA","NA","NA","NA","NA","NA","100929.213796","NA","NA","100617.392639","NA","NA","NA","NA","NA","99766.2505178","NA","Tutorial: Gaze cuing","0","0","0","Human","yes","1024"
"undefined","undefined","undefined","undefined","white","no","psycho","psycho","psycho","0","1","uniform","undefined","undefined","NA","NA","y","0","0","33","33","1","1","NA","NA","0","0","NA","33","NA","NA","NA","NA","NA","NA","NA","33","NA","NA","33","NA","0","NA","1","NA","33","NA","NA","NA","02/20/18 14:00:20","The main experiment item","yes","","Python Experiment.osexp","C:\Users\EfKAy\Desktop","no","mono","no","18","no","black","no","Ok","NA","yes","Male","768","psycho","1","1","1","C:/Users/EfKAy/Desktop/Python Experiment/Data/subject-5.csv","psycho","Jazzy James","3.1.9","0","y","m","NA","NA","NA","NA","NA","288.703104974","21404.6146794","NA","NA","NA","NA","NA","NA","NA","rechts","links","2","legacy","1024","2","48000","-16","experiment","5","odd","NA","6486.28084225","102143.670689","102048.614636","99565.3713748","99565.0243987","NA","NA","6408.80251671","47389.9457003","NA","101304.96376","NA","NA","NA","NA","NA","NA","NA","102433.111888","NA","NA","102143.53313","NA","NA","NA","NA","NA","101281.888823","NA","Tutorial: Gaze cuing","0","0","0","Human","yes","1024"
"undefined","undefined","undefined","undefined","white","no","psycho","psycho","psycho","0","0","uniform","undefined","undefined","NA","NA","m","0","0","34","34","1","1","NA","NA","0","0","NA","34","NA","NA","NA","NA","NA","NA","NA","34","NA","NA","34","NA","0","NA","1","NA","34","NA","NA","NA","02/20/18 14:00:20","The main experiment item","yes","","Python Experiment.osexp","C:\Users\EfKAy\Desktop","no","mono","no","18","no","black","no","Ok","NA","yes","Male","768","psycho","2","2","1","C:/Users/EfKAy/Desktop/Python Experiment/Data/subject-5.csv","psycho","Jazzy James","3.1.9","0","m","m","NA","NA","NA","NA","NA","311.096408541","21404.6146794","NA","NA","NA","NA","NA","NA","NA","links","links","2","legacy","1024","2","48000","-16","experiment","5","odd","NA","6486.28084225","103636.23611","103557.715316","99565.3713748","99565.0243987","NA","NA","6408.80251671","47389.9457003","NA","102814.336991","NA","NA","NA","NA","NA","NA","NA","103948.078312","NA","NA","103636.099065","NA","NA","NA","NA","NA","102792.167477","NA","Tutorial: Gaze cuing","0","0","0","Greeble","yes","1024"
"undefined","undefined","undefined","undefined","white","no","psycho","psycho","psycho","0","0","uniform","undefined","undefined","NA","NA","y","0","0","35","35","1","1","NA","NA","0","0","NA","35","NA","NA","NA","NA","NA","NA","NA","35","NA","NA","35","NA","0","NA","1","NA","35","NA","NA","NA","02/20/18 14:00:20","The main experiment item","yes","","Python Experiment.osexp","C:\Users\EfKAy\Desktop","no","mono","no","18","no","black","no","Ok","NA","yes","Male","768","psycho","3","3","1","C:/Users/EfKAy/Desktop/Python Experiment/Data/subject-5.csv","psycho","Jazzy James","3.1.9","0","y","m","NA","NA","NA","NA","NA","298.832137994","21404.6146794","NA","NA","NA","NA","NA","NA","NA","rechts","rechts","2","legacy","1024","2","48000","-16","experiment","5","odd","NA","6486.28084225","105145.509765","105050.799662","99565.3713748","99565.0243987","NA","NA","6408.80251671","47389.9457003","NA","104306.806429","NA","NA","NA","NA","NA","NA","NA","105445.129785","NA","NA","105145.37272","NA","NA","NA","NA","NA","104293.869251","NA","Tutorial: Gaze cuing","0","0","0","Human","yes","1024"
"undefined","undefined","undefined","undefined","white","no","psycho","psycho","psycho","0","0","uniform","undefined","undefined","NA","NA","y","0","0","36","36","1","1","NA","NA","0","0","NA","36","NA","NA","NA","NA","NA","NA","NA","36","NA","NA","36","NA","0","NA","1","NA","36","NA","NA","NA","02/20/18 14:00:20","The main experiment item","yes","","Python Experiment.osexp","C:\Users\EfKAy\Desktop","no","mono","no","18","no","black","no","Ok","NA","yes","Male","768","psycho","4","4","1","C:/Users/EfKAy/Desktop/Python Experiment/Data/subject-5.csv","psycho","Jazzy James","3.1.9","0","y","m","NA","NA","NA","NA","NA","299.784782429","21404.6146794","NA","NA","NA","NA","NA","NA","NA","links","links","2","legacy","1024","2","48000","-16","experiment","5","odd","NA","6486.28084225","106638.104443","106542.877982","99565.3713748","99565.0243987","NA","NA","6408.80251671","47389.9457003","NA","105799.398541","NA","NA","NA","NA","NA","NA","NA","106938.621673","NA","NA","106637.966371","NA","NA","NA","NA","NA","105791.19892","NA","Tutorial: Gaze cuing","0","0","0","Human","yes","1024"
"undefined","undefined","undefined","undefined","white","no","psycho","psycho","psycho","0","0","uniform","undefined","undefined","NA","NA","m","0","0","37","37","1","1","NA","NA","0","0","NA","37","NA","NA","NA","NA","NA","NA","NA","37","NA","NA","37","NA","0","NA","1","NA","37","NA","NA","NA","02/20/18 14:00:20","The main experiment item","yes","","Python Experiment.osexp","C:\Users\EfKAy\Desktop","no","mono","no","18","no","black","no","Ok","NA","yes","Male","768","psycho","5","5","1","C:/Users/EfKAy/Desktop/Python Experiment/Data/subject-5.csv","psycho","Jazzy James","3.1.9","0","m","m","NA","NA","NA","NA","NA","341.54818066","21404.6146794","NA","NA","NA","NA","NA","NA","NA","links","rechts","2","legacy","1024","2","48000","-16","experiment","5","odd","NA","6486.28084225","108113.818426","108035.959761","99565.3713748","99565.0243987","NA","NA","6408.80251671","47389.9457003","NA","107291.905961","NA","NA","NA","NA","NA","NA","NA","108456.165781","NA","NA","108113.68138","NA","NA","NA","NA","NA","107277.320646","NA","Tutorial: Gaze cuing","0","0","0","Greeble","yes","1024"
"undefined","undefined","undefined","undefined","white","no","psycho","psycho","psycho","0","0","uniform","undefined","undefined","NA","NA","y","0","0","38","38","1","1","NA","NA","0","0","NA","38","NA","NA","NA","NA","NA","NA","NA","38","NA","NA","38","NA","0","NA","1","NA","38","NA","NA","NA","02/20/18 14:00:20","The main experiment item","yes","","Python Experiment.osexp","C:\Users\EfKAy\Desktop","no","mono","no","18","no","black","no","Ok","NA","yes","Male","768","psycho","6","6","1","C:/Users/EfKAy/Desktop/Python Experiment/Data/subject-5.csv","psycho","Jazzy James","3.1.9","0","y","m","NA","NA","NA","NA","NA","322.817630697","21404.6146794","NA","NA","NA","NA","NA","NA","NA","links","links","2","legacy","1024","2","48000","-16","experiment","5","odd","NA","6486.28084225","109673.434412","109579.081037","99565.3713748","99565.0243987","NA","NA","6408.80251671","47389.9457003","NA","108834.743908","NA","NA","NA","NA","NA","NA","NA","109997.011694","NA","NA","109673.296853","NA","NA","NA","NA","NA","108826.128019","NA","Tutorial: Gaze cuing","0","0","0","Human","yes","1024"
"undefined","undefined","undefined","undefined","white","no","psycho","psycho","psycho","0","1","uniform","undefined","undefined","NA","NA","y","0","0","39","39","1","1","NA","NA","0","0","NA","39","NA","NA","NA","NA","NA","NA","NA","39","NA","NA","39","NA","0","NA","1","NA","39","NA","NA","NA","02/20/18 14:00:20","The main experiment item","yes","","Python Experiment.osexp","C:\Users\EfKAy\Desktop","no","mono","no","18","no","black","no","Ok","NA","yes","Male","768","psycho","7","7","1","C:/Users/EfKAy/Desktop/Python Experiment/Data/subject-5.csv","psycho","Jazzy James","3.1.9","0","y","m","NA","NA","NA","NA","NA","363.816244333","21404.6146794","NA","NA","NA","NA","NA","NA","NA","rechts","links","2","legacy","1024","2","48000","-16","experiment","5","odd","NA","6486.28084225","111183.195167","111088.174018","99565.3713748","99565.0243987","NA","NA","6408.80251671","47389.9457003","NA","110344.014996","NA","NA","NA","NA","NA","NA","NA","111547.757205","NA","NA","111183.046317","NA","NA","NA","NA","NA","110334.652801","NA","Tutorial: Gaze cuing","0","0","0","Human","yes","1024"
"undefined","undefined","undefined","undefined","white","no","psycho","psycho","psycho","0","0","uniform","undefined","undefined","NA","NA","m","0","0","40","40","1","1","NA","NA","0","0","NA","40","NA","NA","NA","NA","NA","NA","NA","40","NA","NA","40","NA","0","NA","1","NA","40","NA","NA","NA","02/20/18 14:00:20","The main experiment item","yes","","Python Experiment.osexp","C:\Users\EfKAy\Desktop","no","mono","no","18","no","black","no","Ok","NA","yes","Male","768","psycho","8","8","1","C:/Users/EfKAy/Desktop/Python Experiment/Data/subject-5.csv","psycho","Jazzy James","3.1.9","0","m","m","NA","NA","NA","NA","NA","331.696317896","21404.6146794","NA","NA","NA","NA","NA","NA","NA","rechts","rechts","2","legacy","1024","2","48000","-16","experiment","5","odd","NA","6486.28084225","112742.403097","112664.25597","99565.3713748","99565.0243987","NA","NA","6408.80251671","47389.9457003","NA","111920.523996","NA","NA","NA","NA","NA","NA","NA","113074.835969","NA","NA","112742.268618","NA","NA","NA","NA","NA","111900.142229","NA","Tutorial: Gaze cuing","0","0","0","Greeble","yes","1024"
"undefined","undefined","undefined","undefined","white","no","psycho","psycho","psycho","0","1","uniform","undefined","undefined","NA","NA","m","0","0","41","41","1","1","NA","NA","0","0","NA","41","NA","NA","NA","NA","NA","NA","NA","41","NA","NA","41","NA","0","NA","1","NA","41","NA","NA","NA","02/20/18 14:00:20","The main experiment item","yes","","Python Experiment.osexp","C:\Users\EfKAy\Desktop","no","mono","no","18","no","black","no","Ok","NA","yes","Male","768","psycho","9","9","1","C:/Users/EfKAy/Desktop/Python Experiment/Data/subject-5.csv","psycho","Jazzy James","3.1.9","0","m","m","NA","NA","NA","NA","NA","353.279668381","21404.6146794","NA","NA","NA","NA","NA","NA","NA","rechts","links","2","legacy","1024","2","48000","-16","experiment","5","odd","NA","6486.28084225","114285.249256","114207.342856","99565.3713748","99565.0243987","NA","NA","6408.80251671","47389.9457003","NA","113463.390172","NA","NA","NA","NA","NA","NA","NA","114639.288576","NA","NA","114285.105024","NA","NA","NA","NA","NA","113444.559533","NA","Tutorial: Gaze cuing","0","0","0","Greeble","yes","1024"
"undefined","undefined","undefined","undefined","white","no","psycho","psycho","psycho","0","0","uniform","undefined","undefined","NA","NA","y","0","0","42","42","1","1","NA","NA","0","0","NA","42","NA","NA","NA","NA","NA","NA","NA","42","NA","NA","42","NA","0","NA","1","NA","42","NA","NA","NA","02/20/18 14:00:20","The main experiment item","yes","","Python Experiment.osexp","C:\Users\EfKAy\Desktop","no","mono","no","18","no","black","no","Ok","NA","yes","Male","768","psycho","10","10","1","C:/Users/EfKAy/Desktop/Python Experiment/Data/subject-5.csv","psycho","Jazzy James","3.1.9","0","y","m","NA","NA","NA","NA","NA","339.827158681","21404.6146794","NA","NA","NA","NA","NA","NA","NA","rechts","rechts","2","legacy","1024","2","48000","-16","experiment","5","odd","NA","6486.28084225","115844.878073","115750.422043","99565.3713748","99565.0243987","NA","NA","6408.80251671","47389.9457003","NA","115006.225039","NA","NA","NA","NA","NA","NA","NA","116185.474123","NA","NA","115844.737948","NA","NA","NA","NA","NA","114989.09797","NA","Tutorial: Gaze cuing","0","0","0","Human","yes","1024"
"undefined","undefined","undefined","undefined","white","no","psycho","psycho","psycho","0","0","uniform","undefined","undefined","NA","NA","m","0","0","43","43","1","1","NA","NA","0","0","NA","43","NA","NA","NA","NA","NA","NA","NA","43","NA","NA","43","NA","0","NA","1","NA","43","NA","NA","NA","02/20/18 14:00:20","The main experiment item","yes","","Python Experiment.osexp","C:\Users\EfKAy\Desktop","no","mono","no","18","no","black","no","Ok","NA","yes","Male","768","psycho","11","11","1","C:/Users/EfKAy/Desktop/Python Experiment/Data/subject-5.csv","psycho","Jazzy James","3.1.9","0","m","m","NA","NA","NA","NA","NA","364.35159355","21404.6146794","NA","NA","NA","NA","NA","NA","NA","links","links","2","legacy","1024","2","48000","-16","experiment","5","odd","NA","6486.28084225","117370.899484","117292.508037","99565.3713748","99565.0243987","NA","NA","6408.80251671","47389.9457003","NA","116549.006011","NA","NA","NA","NA","NA","NA","NA","117735.986092","NA","NA","117370.762952","NA","NA","NA","NA","NA","116539.672559","NA","Tutorial: Gaze cuing","0","0","0","Greeble","yes","1024"
"undefined","undefined","undefined","undefined","white","no","psycho","psycho","psycho","0","0","uniform","undefined","undefined","NA","NA","y","0","0","44","44","1","1","NA","NA","0","0","NA","44","NA","NA","NA","NA","NA","NA","NA","44","NA","NA","44","NA","0","NA","1","NA","44","NA","NA","NA","02/20/18 14:00:20","The main experiment item","yes","","Python Experiment.osexp","C:\Users\EfKAy\Desktop","no","mono","no","18","no","black","no","Ok","NA","yes","Male","768","psycho","12","12","1","C:/Users/EfKAy/Desktop/Python Experiment/Data/subject-5.csv","psycho","Jazzy James","3.1.9","0","y","m","NA","NA","NA","NA","NA","314.83410077","21404.6146794","NA","NA","NA","NA","NA","NA","NA","links","rechts","2","legacy","1024","2","48000","-16","experiment","5","odd","NA","6486.28084225","118930.570904","118835.585171","99565.3713748","99565.0243987","NA","NA","6408.80251671","47389.9457003","NA","118091.84909","NA","NA","NA","NA","NA","NA","NA","119246.142586","NA","NA","118930.425646","NA","NA","NA","NA","NA","118077.988011","NA","Tutorial: Gaze cuing","0","0","0","Human","yes","1024"
"undefined","undefined","undefined","undefined","white","no","psycho","psycho","psycho","0","0","uniform","undefined","undefined","NA","NA","y","0","0","45","45","1","1","NA","NA","0","0","NA","45","NA","NA","NA","NA","NA","NA","NA","45","NA","NA","45","NA","0","NA","1","NA","45","NA","NA","NA","02/20/18 14:00:20","The main experiment item","yes","","Python Experiment.osexp","C:\Users\EfKAy\Desktop","no","mono","no","18","no","black","no","Ok","NA","yes","Male","768","psycho","13","13","1","C:/Users/EfKAy/Desktop/Python Experiment/Data/subject-5.csv","psycho","Jazzy James","3.1.9","0","y","m","NA","NA","NA","NA","NA","387.469646008","21404.6146794","NA","NA","NA","NA","NA","NA","NA","links","links","2","legacy","1024","2","48000","-16","experiment","5","odd","NA","6486.28084225","120456.625165","120361.698972","99565.3713748","99565.0243987","NA","NA","6408.80251671","47389.9457003","NA","119617.914643","NA","NA","NA","NA","NA","NA","NA","120844.849843","NA","NA","120456.482473","NA","NA","NA","NA","NA","119605.946534","NA","Tutorial: Gaze cuing","0","0","0","Human","yes","1024"
"undefined","undefined","undefined","undefined","white","no","psycho","psycho","psycho","0","1","uniform","undefined","undefined","NA","NA","y","0","0","46","46","1","1","NA","NA","0","0","NA","46","NA","NA","NA","NA","NA","NA","NA","46","NA","NA","46","NA","0","NA","1","NA","46","NA","NA","NA","02/20/18 14:00:20","The main experiment item","yes","","Python Experiment.osexp","C:\Users\EfKAy\Desktop","no","mono","no","18","no","black","no","Ok","NA","yes","Male","768","psycho","14","14","1","C:/Users/EfKAy/Desktop/Python Experiment/Data/subject-5.csv","psycho","Jazzy James","3.1.9","0","y","m","NA","NA","NA","NA","NA","323.165633352","21404.6146794","NA","NA","NA","NA","NA","NA","NA","rechts","links","2","legacy","1024","2","48000","-16","experiment","5","odd","NA","6486.28084225","122049.810061","121954.780699","99565.3713748","99565.0243987","NA","NA","6408.80251671","47389.9457003","NA","121211.177045","NA","NA","NA","NA","NA","NA","NA","122373.719948","NA","NA","122049.67199","NA","NA","NA","NA","NA","121198.057139","NA","Tutorial: Gaze cuing","0","0","0","Human","yes","1024"
"undefined","undefined","undefined","undefined","white","no","psycho","psycho","psycho","0","0","uniform","undefined","undefined","NA","NA","m","0","0","47","47","1","1","NA","NA","0","0","NA","47","NA","NA","NA","NA","NA","NA","NA","47","NA","NA","47","NA","0","NA","1","NA","47","NA","NA","NA","02/20/18 14:00:20","The main experiment item","yes","","Python Experiment.osexp","C:\Users\EfKAy\Desktop","no","mono","no","18","no","black","no","Ok","NA","yes","Male","768","psycho","15","15","1","C:/Users/EfKAy/Desktop/Python Experiment/Data/subject-5.csv","psycho","Jazzy James","3.1.9","0","m","m","NA","NA","NA","NA","NA","343.028475138","21404.6146794","NA","NA","NA","NA","NA","NA","NA","links","rechts","2","legacy","1024","2","48000","-16","experiment","5","odd","NA","6486.28084225","123559.031875","123480.865757","99565.3713748","99565.0243987","NA","NA","6408.80251671","47389.9457003","NA","122737.231305","NA","NA","NA","NA","NA","NA","NA","123902.804604","NA","NA","123558.89483","NA","NA","NA","NA","NA","122713.629745","NA","Tutorial: Gaze cuing","0","0","0","Greeble","yes","1024"
"undefined","undefined","undefined","undefined","white","no","psycho","psycho","psycho","0","0","uniform","undefined","undefined","NA","NA","y","0","0","48","48","1","1","NA","NA","0","0","NA","48","NA","NA","NA","NA","NA","NA","NA","48","NA","NA","48","NA","0","NA","1","NA","48","NA","NA","NA","02/20/18 14:00:20","The main experiment item","yes","","Python Experiment.osexp","C:\Users\EfKAy\Desktop","no","mono","no","18","no","black","no","Ok","NA","yes","Male","768","psycho","16","16","1","C:/Users/EfKAy/Desktop/Python Experiment/Data/subject-5.csv","psycho","Jazzy James","3.1.9","0","y","m","NA","NA","NA","NA","NA","321.675586587","21404.6146794","NA","NA","NA","NA","NA","NA","NA","rechts","rechts","2","legacy","1024","2","48000","-16","experiment","5","odd","NA","6486.28084225","125102.052548","125006.942602","99565.3713748","99565.0243987","NA","NA","6408.80251671","47389.9457003","NA","124263.340487","NA","NA","NA","NA","NA","NA","NA","125424.466229","NA","NA","125101.904724","NA","NA","NA","NA","NA","124248.079184","NA","Tutorial: Gaze cuing","0","0","0","Human","yes","1024"
"undefined","undefined","undefined","undefined","white","no","psycho","psycho","psycho","0","0","uniform","undefined","undefined","NA","NA","m","0","0","49","49","1","1","NA","NA","0","0","NA","49","NA","NA","NA","NA","NA","NA","NA","49","NA","NA","49","NA","0","NA","1","NA","49","NA","NA","NA","02/20/18 14:00:20","The main experiment item","yes","","Python Experiment.osexp","C:\Users\EfKAy\Desktop","no","mono","no","18","no","black","no","Ok","NA","yes","Male","768","psycho","17","17","1","C:/Users/EfKAy/Desktop/Python Experiment/Data/subject-5.csv","psycho","Jazzy James","3.1.9","0","m","m","NA","NA","NA","NA","NA","239.52745551","21404.6146794","NA","NA","NA","NA","NA","NA","NA","rechts","rechts","2","legacy","1024","2","48000","-16","experiment","5","odd","NA","6486.28084225","126611.239459","126533.050757","99565.3713748","99565.0243987","NA","NA","6408.80251671","47389.9457003","NA","125789.344446","NA","NA","NA","NA","NA","NA","NA","126851.501416","NA","NA","126611.101901","NA","NA","NA","NA","NA","125777.619631","NA","Tutorial: Gaze cuing","0","0","0","Greeble","yes","1024"
"undefined","undefined","undefined","undefined","white","no","psycho","psycho","psycho","0","0","uniform","undefined","undefined","NA","NA","m","0","0","50","50","1","1","NA","NA","0","0","NA","50","NA","NA","NA","NA","NA","NA","NA","50","NA","NA","50","NA","0","NA","1","NA","50","NA","NA","NA","02/20/18 14:00:20","The main experiment item","yes","","Python Experiment.osexp","C:\Users\EfKAy\Desktop","no","mono","no","18","no","black","no","Ok","NA","yes","Male","768","psycho","18","18","1","C:/Users/EfKAy/Desktop/Python Experiment/Data/subject-5.csv","psycho","Jazzy James","3.1.9","0","m","m","NA","NA","NA","NA","NA","357.515753793","21404.6146794","NA","NA","NA","NA","NA","NA","NA","links","links","2","legacy","1024","2","48000","-16","experiment","5","odd","NA","6486.28084225","128019.899798","127942.10478","99565.3713748","99565.0243987","NA","NA","6408.80251671","47389.9457003","NA","127198.129511","NA","NA","NA","NA","NA","NA","NA","128378.195735","NA","NA","128019.763266","NA","NA","NA","NA","NA","127190.313823","NA","Tutorial: Gaze cuing","0","0","0","Greeble","yes","1024"
"undefined","undefined","undefined","undefined","white","no","psycho","psycho","psycho","0","1","uniform","undefined","undefined","NA","NA","m","0","0","51","51","1","1","NA","NA","0","0","NA","51","NA","NA","NA","NA","NA","NA","NA","51","NA","NA","51","NA","0","NA","1","NA","51","NA","NA","NA","02/20/18 14:00:20","The main experiment item","yes","","Python Experiment.osexp","C:\Users\EfKAy\Desktop","no","mono","no","18","no","black","no","Ok","NA","yes","Male","768","psycho","19","19","1","C:/Users/EfKAy/Desktop/Python Experiment/Data/subject-5.csv","psycho","Jazzy James","3.1.9","0","m","m","NA","NA","NA","NA","NA","298.385072636","21404.6146794","NA","NA","NA","NA","NA","NA","NA","rechts","links","2","legacy","1024","2","48000","-16","experiment","5","odd","NA","6486.28084225","129579.497306","129501.188496","99565.3713748","99565.0243987","NA","NA","6408.80251671","47389.9457003","NA","128757.68493","NA","NA","NA","NA","NA","NA","NA","129878.619446","NA","NA","129579.358207","NA","NA","NA","NA","NA","128733.762571","NA","Tutorial: Gaze cuing","0","0","0","Greeble","yes","1024"
"undefined","undefined","undefined","undefined","white","no","psycho","psycho","psycho","0","0","uniform","undefined","undefined","NA","NA","m","0","0","52","52","1","1","NA","NA","0","0","NA","52","NA","NA","NA","NA","NA","NA","NA","52","NA","NA","52","NA","0","NA","1","NA","52","NA","NA","NA","02/20/18 14:00:20","The main experiment item","yes","","Python Experiment.osexp","C:\Users\EfKAy\Desktop","no","mono","no","18","no","black","no","Ok","NA","yes","Male","768","psycho","20","20","1","C:/Users/EfKAy/Desktop/Python Experiment/Data/subject-5.csv","psycho","Jazzy James","3.1.9","0","m","m","NA","NA","NA","NA","NA","276.272018995","21404.6146794","NA","NA","NA","NA","NA","NA","NA","links","links","2","legacy","1024","2","48000","-16","experiment","5","odd","NA","6486.28084225","131055.275448","130977.351084","99565.3713748","99565.0243987","NA","NA","6408.80251671","47389.9457003","NA","130233.376329","NA","NA","NA","NA","NA","NA","NA","131332.318411","NA","NA","131055.13481","NA","NA","NA","NA","NA","130215.588671","NA","Tutorial: Gaze cuing","0","0","0","Greeble","yes","1024"
"undefined","undefined","undefined","undefined","white","no","psycho","psycho","psycho","0","0","uniform","undefined","undefined","NA","NA","m","0","0","53","53","1","1","NA","NA","0","0","NA","53","NA","NA","NA","NA","NA","NA","NA","53","NA","NA","53","NA","0","NA","1","NA","53","NA","NA","NA","02/20/18 14:00:20","The main experiment item","yes","","Python Experiment.osexp","C:\Users\EfKAy\Desktop","no","mono","no","18","no","black","no","Ok","NA","yes","Male","768","psycho","21","21","1","C:/Users/EfKAy/Desktop/Python Experiment/Data/subject-5.csv","psycho","Jazzy James","3.1.9","0","m","m","NA","NA","NA","NA","NA","318.161170398","21404.6146794","NA","NA","NA","NA","NA","NA","NA","rechts","rechts","2","legacy","1024","2","48000","-16","experiment","5","odd","NA","6486.28084225","132514.407464","132436.379417","99565.3713748","99565.0243987","NA","NA","6408.80251671","47389.9457003","NA","131692.383105","NA","NA","NA","NA","NA","NA","NA","132833.312888","NA","NA","132514.267852","NA","NA","NA","NA","NA","131683.021936","NA","Tutorial: Gaze cuing","0","0","0","Greeble","yes","1024"
"undefined","undefined","undefined","undefined","white","no","psycho","psycho","psycho","0","1","uniform","undefined","undefined","NA","NA","m","0","0","54","54","1","1","NA","NA","0","0","NA","54","NA","NA","NA","NA","NA","NA","NA","54","NA","NA","54","NA","0","NA","1","NA","54","NA","NA","NA","02/20/18 14:00:20","The main experiment item","yes","","Python Experiment.osexp","C:\Users\EfKAy\Desktop","no","mono","no","18","no","black","no","Ok","NA","yes","Male","768","psycho","22","22","1","C:/Users/EfKAy/Desktop/Python Experiment/Data/subject-5.csv","psycho","Jazzy James","3.1.9","0","m","m","NA","NA","NA","NA","NA","328.5124529","21404.6146794","NA","NA","NA","NA","NA","NA","NA","rechts","links","2","legacy","1024","2","48000","-16","experiment","5","odd","NA","6486.28084225","134006.867663","133928.442339","99565.3713748","99565.0243987","NA","NA","6408.80251671","47389.9457003","NA","133184.984969","NA","NA","NA","NA","NA","NA","NA","134336.111537","NA","NA","134006.729078","NA","NA","NA","NA","NA","133169.891508","NA","Tutorial: Gaze cuing","0","0","0","Greeble","yes","1024"
"undefined","undefined","undefined","undefined","white","no","psycho","psycho","psycho","0","0","uniform","undefined","undefined","NA","NA","m","0","0","55","55","1","1","NA","NA","0","0","NA","55","NA","NA","NA","NA","NA","NA","NA","55","NA","NA","55","NA","0","NA","1","NA","55","NA","NA","NA","02/20/18 14:00:20","The main experiment item","yes","","Python Experiment.osexp","C:\Users\EfKAy\Desktop","no","mono","no","18","no","black","no","Ok","NA","yes","Male","768","psycho","23","23","1","C:/Users/EfKAy/Desktop/Python Experiment/Data/subject-5.csv","psycho","Jazzy James","3.1.9","0","m","m","NA","NA","NA","NA","NA","294.752602449","21404.6146794","NA","NA","NA","NA","NA","NA","NA","rechts","rechts","2","legacy","1024","2","48000","-16","experiment","5","odd","NA","6486.28084225","135516.097176","135438.560337","99565.3713748","99565.0243987","NA","NA","6408.80251671","47389.9457003","NA","134694.230393","NA","NA","NA","NA","NA","NA","NA","135811.599678","NA","NA","135515.960131","NA","NA","NA","NA","NA","134685.745904","NA","Tutorial: Gaze cuing","0","0","0","Greeble","yes","1024"
"undefined","undefined","undefined","undefined","white","no","psycho","psycho","psycho","0","0","uniform","undefined","undefined","NA","NA","y","0","0","56","56","1","1","NA","NA","0","0","NA","56","NA","NA","NA","NA","NA","NA","NA","56","NA","NA","56","NA","0","NA","1","NA","56","NA","NA","NA","02/20/18 14:00:20","The main experiment item","yes","","Python Experiment.osexp","C:\Users\EfKAy\Desktop","no","mono","no","18","no","black","no","Ok","NA","yes","Male","768","psycho","24","24","1","C:/Users/EfKAy/Desktop/Python Experiment/Data/subject-5.csv","psycho","Jazzy James","3.1.9","0","y","m","NA","NA","NA","NA","NA","395.932064544","21404.6146794","NA","NA","NA","NA","NA","NA","NA","links","rechts","2","legacy","1024","2","48000","-16","experiment","5","odd","NA","6486.28084225","137008.772439","136913.654279","99565.3713748","99565.0243987","NA","NA","6408.80251671","47389.9457003","NA","136170.111191","NA","NA","NA","NA","NA","NA","NA","137405.44465","NA","NA","137008.63642","NA","NA","NA","NA","NA","136153.700146","NA","Tutorial: Gaze cuing","0","0","0","Human","yes","1024"
"undefined","undefined","undefined","undefined","white","no","psycho","psycho","psycho","0","0","uniform","undefined","undefined","NA","NA","y","0","0","57","57","1","1","NA","NA","0","0","NA","57","NA","NA","NA","NA","NA","NA","NA","57","NA","NA","57","NA","0","NA","1","NA","57","NA","NA","NA","02/20/18 14:00:20","The main experiment item","yes","","Python Experiment.osexp","C:\Users\EfKAy\Desktop","no","mono","no","18","no","black","no","Ok","NA","yes","Male","768","psycho","25","25","1","C:/Users/EfKAy/Desktop/Python Experiment/Data/subject-5.csv","psycho","Jazzy James","3.1.9","0","y","m","NA","NA","NA","NA","NA","404.507917573","21404.6146794","NA","NA","NA","NA","NA","NA","NA","links","rechts","2","legacy","1024","2","48000","-16","experiment","5","odd","NA","6486.28084225","138601.91268","138506.743706","99565.3713748","99565.0243987","NA","NA","6408.80251671","47389.9457003","NA","137763.172901","NA","NA","NA","NA","NA","NA","NA","139007.157152","NA","NA","138601.774095","NA","NA","NA","NA","NA","137752.209278","NA","Tutorial: Gaze cuing","0","0","0","Human","yes","1024"
"undefined","undefined","undefined","undefined","white","no","psycho","psycho","psycho","0","0","uniform","undefined","undefined","NA","NA","y","0","0","58","58","1","1","NA","NA","0","0","NA","58","NA","NA","NA","NA","NA","NA","NA","58","NA","NA","58","NA","0","NA","1","NA","58","NA","NA","NA","02/20/18 14:00:20","The main experiment item","yes","","Python Experiment.osexp","C:\Users\EfKAy\Desktop","no","mono","no","18","no","black","no","Ok","NA","yes","Male","768","psycho","26","26","1","C:/Users/EfKAy/Desktop/Python Experiment/Data/subject-5.csv","psycho","Jazzy James","3.1.9","0","y","m","NA","NA","NA","NA","NA","333.29517965","21404.6146794","NA","NA","NA","NA","NA","NA","NA","links","links","2","legacy","1024","2","48000","-16","experiment","5","odd","NA","6486.28084225","140211.761155","140116.818537","99565.3713748","99565.0243987","NA","NA","6408.80251671","47389.9457003","NA","139373.196404","NA","NA","NA","NA","NA","NA","NA","140545.799562","NA","NA","140211.615897","NA","NA","NA","NA","NA","139350.008033","NA","Tutorial: Gaze cuing","0","0","0","Human","yes","1024"
"undefined","undefined","undefined","undefined","white","no","psycho","psycho","psycho","0","0","uniform","undefined","undefined","NA","NA","y","0","0","59","59","1","1","NA","NA","0","0","NA","59","NA","NA","NA","NA","NA","NA","NA","59","NA","NA","59","NA","0","NA","1","NA","59","NA","NA","NA","02/20/18 14:00:20","The main experiment item","yes","","Python Experiment.osexp","C:\Users\EfKAy\Desktop","no","mono","no","18","no","black","no","Ok","NA","yes","Male","768","psycho","27","27","1","C:/Users/EfKAy/Desktop/Python Experiment/Data/subject-5.csv","psycho","Jazzy James","3.1.9","0","y","m","NA","NA","NA","NA","NA","348.313188018","21404.6146794","NA","NA","NA","NA","NA","NA","NA","links","rechts","2","legacy","1024","2","48000","-16","experiment","5","odd","NA","6486.28084225","141754.638624","141659.892078","99565.3713748","99565.0243987","NA","NA","6408.80251671","47389.9457003","NA","140916.043076","NA","NA","NA","NA","NA","NA","NA","142103.727375","NA","NA","141754.502605","NA","NA","NA","NA","NA","140899.695164","NA","Tutorial: Gaze cuing","0","0","0","Human","yes","1024"
"undefined","undefined","undefined","undefined","white","no","psycho","psycho","psycho","0","1","uniform","undefined","undefined","NA","NA","y","0","0","60","60","1","1","NA","NA","0","0","NA","60","NA","NA","NA","NA","NA","NA","NA","60","NA","NA","60","NA","0","NA","1","NA","60","NA","NA","NA","02/20/18 14:00:20","The main experiment item","yes","","Python Experiment.osexp","C:\Users\EfKAy\Desktop","no","mono","no","18","no","black","no","Ok","NA","yes","Male","768","psycho","28","28","1","C:/Users/EfKAy/Desktop/Python Experiment/Data/subject-5.csv","psycho","Jazzy James","3.1.9","0","y","m","NA","NA","NA","NA","NA","356.128875957","21404.6146794","NA","NA","NA","NA","NA","NA","NA","rechts","links","2","legacy","1024","2","48000","-16","experiment","5","odd","NA","6486.28084225","143314.285406","143220.029041","99565.3713748","99565.0243987","NA","NA","6408.80251671","47389.9457003","NA","142475.660089","NA","NA","NA","NA","NA","NA","NA","143671.155456","NA","NA","143314.147848","NA","NA","NA","NA","NA","142463.40557","NA","Tutorial: Gaze cuing","0","0","0","Human","yes","1024"
"undefined","undefined","undefined","undefined","white","no","psycho","psycho","psycho","0","0","uniform","undefined","undefined","NA","NA","m","0","0","61","61","1","1","NA","NA","0","0","NA","61","NA","NA","NA","NA","NA","NA","NA","61","NA","NA","61","NA","0","NA","1","NA","61","NA","NA","NA","02/20/18 14:00:20","The main experiment item","yes","","Python Experiment.osexp","C:\Users\EfKAy\Desktop","no","mono","no","18","no","black","no","Ok","NA","yes","Male","768","psycho","29","29","1","C:/Users/EfKAy/Desktop/Python Experiment/Data/subject-5.csv","psycho","Jazzy James","3.1.9","0","m","m","NA","NA","NA","NA","NA","415.906800989","21404.6146794","NA","NA","NA","NA","NA","NA","NA","links","rechts","2","legacy","1024","2","48000","-16","experiment","5","odd","NA","6486.28084225","144857.081777","144779.063483","99565.3713748","99565.0243987","NA","NA","6408.80251671","47389.9457003","NA","144035.182658","NA","NA","NA","NA","NA","NA","NA","145273.734371","NA","NA","144856.938572","NA","NA","NA","NA","NA","144023.524056","NA","Tutorial: Gaze cuing","0","0","0","Greeble","yes","1024"
"undefined","undefined","undefined","undefined","white","no","psycho","psycho","psycho","0","0","uniform","undefined","undefined","NA","NA","m","0","0","62","62","1","1","NA","NA","0","0","NA","62","NA","NA","NA","NA","NA","NA","NA","62","NA","NA","62","NA","0","NA","1","NA","62","NA","NA","NA","02/20/18 14:00:20","The main experiment item","yes","","Python Experiment.osexp","C:\Users\EfKAy\Desktop","no","mono","no","18","no","black","no","Ok","NA","yes","Male","768","psycho","30","30","1","C:/Users/EfKAy/Desktop/Python Experiment/Data/subject-5.csv","psycho","Jazzy James","3.1.9","0","m","m","NA","NA","NA","NA","NA","484.636812008","21404.6146794","NA","NA","NA","NA","NA","NA","NA","links","rechts","2","legacy","1024","2","48000","-16","experiment","5","odd","NA","6486.28084225","146450.279506","146372.154963","99565.3713748","99565.0243987","NA","NA","6408.80251671","47389.9457003","NA","145628.444546","NA","NA","NA","NA","NA","NA","NA","146935.654412","NA","NA","146450.14246","NA","NA","NA","NA","NA","145620.163315","NA","Tutorial: Gaze cuing","0","0","0","Greeble","yes","1024"
"undefined","undefined","undefined","undefined","white","no","psycho","psycho","psycho","0","1","uniform","undefined","undefined","NA","NA","m","0","0","63","63","1","1","NA","NA","0","0","NA","63","NA","NA","NA","NA","NA","NA","NA","63","NA","NA","63","NA","0","NA","1","NA","63","NA","NA","NA","02/20/18 14:00:20","The main experiment item","yes","","Python Experiment.osexp","C:\Users\EfKAy\Desktop","no","mono","no","18","no","black","no","Ok","NA","yes","Male","768","psycho","31","31","1","C:/Users/EfKAy/Desktop/Python Experiment/Data/subject-5.csv","psycho","Jazzy James","3.1.9","0","m","m","NA","NA","NA","NA","NA","332.862486084","21404.6146794","NA","NA","NA","NA","NA","NA","NA","rechts","links","2","legacy","1024","2","48000","-16","experiment","5","odd","NA","6486.28084225","148127.310458","148049.254181","99565.3713748","99565.0243987","NA","NA","6408.80251671","47389.9457003","NA","147305.366683","NA","NA","NA","NA","NA","NA","NA","148460.911038","NA","NA","148127.172899","NA","NA","NA","NA","NA","147292.996678","NA","Tutorial: Gaze cuing","0","0","0","Greeble","yes","1024"
