"acc","accuracy","average_response_time","avg_rt","background","bidi","canvas_backend","clock_backend","color_backend","compensation","congruency","coordinates","correct","correct_Introduction","correct_keyboard_response","correct_new_mouse_response","correct_response","count_Gender","count_Introduction","count_Response","count_Target_1","count_block_loop","count_block_sequence","count_end_of_experiment","count_end_of_practice","count_experiment","count_experimental_loop","count_feedback","count_fixation_dot","count_gaze_cue","count_gaze_cue_1","count_gaze_neutral","count_getting_started","count_incorrect_sound","count_instructions","count_keyboard_response","count_logger","count_neutral_gaze","count_new_mouse_response","count_new_sketchpad","count_new_sketchpad_1","count_new_sketchpad_3","count_practice_loop","count_reset_feedback","count_target","count_trial_sequence","count_welcome","cursor_x","cursor_y","datetime","description","disable_garbage_collection","empty_column","experiment_file","experiment_path","font_bold","font_family","font_italic","font_size","font_underline","foreground","form_clicks","form_response","form_var","fullscreen","gender_subject","height","keyboard_backend","live_row","live_row_block_loop","live_row_experimental_loop","logfile","mouse_backend","opensesame_codename","opensesame_version","repeat_cycle","response","response_Introduction","response_feedback","response_keyboard_response","response_new_mouse_response","response_new_sketchpad_1","response_new_sketchpad_3","response_time","response_time_Introduction","response_time_feedback","response_time_keyboard_response","response_time_new_mouse_response","response_time_new_sketchpad_1","response_time_new_sketchpad_3","response_time_welcome","response_welcome","richtung_bild_links","richtung_bild_rechts","round_decimals","sampler_backend","sound_buf_size","sound_channels","sound_freq","sound_sample_size","start","subject_nr","subject_parity","time_Gender","time_Introduction","time_Response","time_Target_1","time_block_loop","time_block_sequence","time_end_of_experiment","time_end_of_practice","time_experiment","time_experimental_loop","time_feedback","time_fixation_dot","time_gaze_cue","time_gaze_cue_1","time_gaze_neutral","time_getting_started","time_incorrect_sound","time_instructions","time_keyboard_response","time_logger","time_neutral_gaze","time_new_mouse_response","time_new_sketchpad","time_new_sketchpad_1","time_new_sketchpad_3","time_practice_loop","time_reset_feedback","time_target","time_trial_sequence","time_welcome","title","total_correct","total_response_time","total_responses","type","uniform_coordinates","width"
"undefined","undefined","undefined","undefined","white","no","psycho","psycho","psycho","0","0","uniform","undefined","undefined","NA","NA","m","0","0","0","0","0","0","NA","NA","0","0","NA","0","NA","NA","NA","NA","NA","NA","NA","0","NA","NA","0","NA","0","NA","0","NA","0","NA","NA","NA","02/13/18 14:51:39","The main experiment item","yes","","Python Experiment.osexp","C:\Users\EfKAy\Desktop","no","mono","no","18","no","black","no","Ok","NA","yes","Male","768","psycho","0","0","0","C:/Users/EfKAy/Desktop/subject-1.csv","psycho","Jazzy James","3.1.9","0","m","space","NA","NA","NA","NA","NA","613.447375161","1697.32858182","NA","NA","NA","NA","NA","NA","NA","links","links","2","legacy","1024","2","48000","-16","experiment","1","odd","NA","6422.94246599","17682.8702694","17604.7279385","16612.9561754","16612.7775574","NA","NA","6341.47516978","16610.7547589","NA","16860.9083551","NA","NA","NA","NA","NA","NA","NA","18297.1322046","NA","NA","17682.7085892","NA","NA","NA","NA","NA","16839.8160234","NA","Tutorial: Gaze cuing","0","0","0","Greeble","yes","1024"
"undefined","undefined","undefined","undefined","white","no","psycho","psycho","psycho","0","0","uniform","undefined","undefined","NA","NA","m","0","0","1","1","0","0","NA","NA","0","0","NA","1","NA","NA","NA","NA","NA","NA","NA","1","NA","NA","1","NA","0","NA","0","NA","1","NA","NA","NA","02/13/18 14:51:39","The main experiment item","yes","","Python Experiment.osexp","C:\Users\EfKAy\Desktop","no","mono","no","18","no","black","no","Ok","NA","yes","Male","768","psycho","1","1","0","C:/Users/EfKAy/Desktop/subject-1.csv","psycho","Jazzy James","3.1.9","0","m","space","NA","NA","NA","NA","NA","401.258333584","1697.32858182","NA","NA","NA","NA","NA","NA","NA","links","rechts","2","legacy","1024","2","48000","-16","experiment","1","odd","NA","6422.94246599","19812.6532433","19734.9266614","16612.9561754","16612.7775574","NA","NA","6341.47516978","16610.7547589","NA","18990.8745665","NA","NA","NA","NA","NA","NA","NA","20214.6876416","NA","NA","19812.5038816","NA","NA","NA","NA","NA","18964.7614242","NA","Tutorial: Gaze cuing","0","0","0","Greeble","yes","1024"
"undefined","undefined","undefined","undefined","white","no","psycho","psycho","psycho","0","0","uniform","undefined","undefined","NA","NA","m","0","0","2","2","0","0","NA","NA","0","0","NA","2","NA","NA","NA","NA","NA","NA","NA","2","NA","NA","2","NA","0","NA","0","NA","2","NA","NA","NA","02/13/18 14:51:39","The main experiment item","yes","","Python Experiment.osexp","C:\Users\EfKAy\Desktop","no","mono","no","18","no","black","no","Ok","NA","yes","Male","768","psycho","2","2","0","C:/Users/EfKAy/Desktop/subject-1.csv","psycho","Jazzy James","3.1.9","0","m","space","NA","NA","NA","NA","NA","357.631893799","1697.32858182","NA","NA","NA","NA","NA","NA","NA","rechts","rechts","2","legacy","1024","2","48000","-16","experiment","1","odd","NA","6422.94246599","21456.081766","21377.9738242","16612.9561754","16612.7775574","NA","NA","6341.47516978","16610.7547589","NA","20634.4555305","NA","NA","NA","NA","NA","NA","NA","21814.4681672","NA","NA","21455.9344574","NA","NA","NA","NA","NA","20612.6846554","NA","Tutorial: Gaze cuing","0","0","0","Greeble","yes","1024"
"undefined","undefined","undefined","undefined","white","no","psycho","psycho","psycho","0","0","uniform","undefined","undefined","NA","NA","y","0","0","3","3","0","0","NA","NA","0","0","NA","3","NA","NA","NA","NA","NA","NA","NA","3","NA","NA","3","NA","0","NA","0","NA","3","NA","NA","NA","02/13/18 14:51:39","The main experiment item","yes","","Python Experiment.osexp","C:\Users\EfKAy\Desktop","no","mono","no","18","no","black","no","Ok","NA","yes","Male","768","psycho","3","3","0","C:/Users/EfKAy/Desktop/subject-1.csv","psycho","Jazzy James","3.1.9","0","y","space","NA","NA","NA","NA","NA","411.132115274","1697.32858182","NA","NA","NA","NA","NA","NA","NA","links","links","2","legacy","1024","2","48000","-16","experiment","1","odd","NA","6422.94246599","23032.4987386","22938.0390301","16612.9561754","16612.7775574","NA","NA","6341.47516978","16610.7547589","NA","22193.8447593","NA","NA","NA","NA","NA","NA","NA","23444.3899808","NA","NA","23032.3504035","NA","NA","NA","NA","NA","22181.9199493","NA","Tutorial: Gaze cuing","0","0","0","Human","yes","1024"
"undefined","undefined","undefined","undefined","white","no","psycho","psycho","psycho","0","1","uniform","undefined","undefined","NA","NA","y","0","0","4","4","0","0","NA","NA","0","0","NA","4","NA","NA","NA","NA","NA","NA","NA","4","NA","NA","4","NA","0","NA","0","NA","4","NA","NA","NA","02/13/18 14:51:39","The main experiment item","yes","","Python Experiment.osexp","C:\Users\EfKAy\Desktop","no","mono","no","18","no","black","no","Ok","NA","yes","Male","768","psycho","4","4","0","C:/Users/EfKAy/Desktop/subject-1.csv","psycho","Jazzy James","3.1.9","0","y","space","NA","NA","NA","NA","NA","290.902642366","1697.32858182","NA","NA","NA","NA","NA","NA","NA","rechts","links","2","legacy","1024","2","48000","-16","experiment","1","odd","NA","6422.94246599","24675.9760221","24581.131874","16612.9561754","16612.7775574","NA","NA","6341.47516978","16610.7547589","NA","23837.341547","NA","NA","NA","NA","NA","NA","NA","24967.6932245","NA","NA","24675.8256339","NA","NA","NA","NA","NA","23827.2783686","NA","Tutorial: Gaze cuing","0","0","0","Human","yes","1024"
"undefined","undefined","undefined","undefined","white","no","psycho","psycho","psycho","0","1","uniform","undefined","undefined","NA","NA","y","0","0","5","5","0","0","NA","NA","0","0","NA","5","NA","NA","NA","NA","NA","NA","NA","5","NA","NA","5","NA","0","NA","0","NA","5","NA","NA","NA","02/13/18 14:51:39","The main experiment item","yes","","Python Experiment.osexp","C:\Users\EfKAy\Desktop","no","mono","no","18","no","black","no","Ok","NA","yes","Male","768","psycho","5","5","0","C:/Users/EfKAy/Desktop/subject-1.csv","psycho","Jazzy James","3.1.9","0","y","space","NA","NA","NA","NA","NA","275.879732546","1697.32858182","NA","NA","NA","NA","NA","NA","NA","rechts","links","2","legacy","1024","2","48000","-16","experiment","1","odd","NA","6422.94246599","26185.296755","26090.190839","16612.9561754","16612.7775574","NA","NA","6341.47516978","16610.7547589","NA","25346.5945282","NA","NA","NA","NA","NA","NA","NA","26461.9356143","NA","NA","26185.1484198","NA","NA","NA","NA","NA","25333.5333377","NA","Tutorial: Gaze cuing","0","0","0","Human","yes","1024"
"undefined","undefined","undefined","undefined","white","no","psycho","psycho","psycho","0","0","uniform","undefined","undefined","NA","NA","y","0","0","6","6","0","0","NA","NA","0","0","NA","6","NA","NA","NA","NA","NA","NA","NA","6","NA","NA","6","NA","0","NA","0","NA","6","NA","NA","NA","02/13/18 14:51:39","The main experiment item","yes","","Python Experiment.osexp","C:\Users\EfKAy\Desktop","no","mono","no","18","no","black","no","Ok","NA","yes","Male","768","psycho","6","6","0","C:/Users/EfKAy/Desktop/subject-1.csv","psycho","Jazzy James","3.1.9","0","y","space","NA","NA","NA","NA","NA","308.910219264","1697.32858182","NA","NA","NA","NA","NA","NA","NA","rechts","rechts","2","legacy","1024","2","48000","-16","experiment","1","odd","NA","6422.94246599","27644.3565155","27566.292715","16612.9561754","16612.7775574","NA","NA","6341.47516978","16610.7547589","NA","26822.4336098","NA","NA","NA","NA","NA","NA","NA","27954.0279147","NA","NA","27644.2117733","NA","NA","NA","NA","NA","26803.5088188","NA","Tutorial: Gaze cuing","0","0","0","Human","yes","1024"
"undefined","undefined","undefined","undefined","white","no","psycho","psycho","psycho","0","0","uniform","undefined","undefined","NA","NA","m","0","0","7","7","0","0","NA","NA","0","0","NA","7","NA","NA","NA","NA","NA","NA","NA","7","NA","NA","7","NA","0","NA","0","NA","7","NA","NA","NA","02/13/18 14:51:39","The main experiment item","yes","","Python Experiment.osexp","C:\Users\EfKAy\Desktop","no","mono","no","18","no","black","no","Ok","NA","yes","Male","768","psycho","7","7","0","C:/Users/EfKAy/Desktop/subject-1.csv","psycho","Jazzy James","3.1.9","0","m","space","NA","NA","NA","NA","NA","284.056129192","1697.32858182","NA","NA","NA","NA","NA","NA","NA","links","links","2","legacy","1024","2","48000","-16","experiment","1","odd","NA","6422.94246599","29153.5817801","29079.3998432","16612.9561754","16612.7775574","NA","NA","6341.47516978","16610.7547589","NA","28331.6901839","NA","NA","NA","NA","NA","NA","NA","29438.4098679","NA","NA","29153.4349848","NA","NA","NA","NA","NA","28324.0280841","NA","Tutorial: Gaze cuing","0","0","0","Greeble","yes","1024"
"undefined","undefined","undefined","undefined","white","no","psycho","psycho","psycho","0","1","uniform","undefined","undefined","NA","NA","m","0","0","8","8","0","0","NA","NA","0","0","NA","8","NA","NA","NA","NA","NA","NA","NA","8","NA","NA","8","NA","0","NA","0","NA","8","NA","NA","NA","02/13/18 14:51:39","The main experiment item","yes","","Python Experiment.osexp","C:\Users\EfKAy\Desktop","no","mono","no","18","no","black","no","Ok","NA","yes","Male","768","psycho","8","8","0","C:/Users/EfKAy/Desktop/subject-1.csv","psycho","Jazzy James","3.1.9","0","m","space","NA","NA","NA","NA","NA","343.91217739","1697.32858182","NA","NA","NA","NA","NA","NA","NA","rechts","links","2","legacy","1024","2","48000","-16","experiment","1","odd","NA","6422.94246599","30679.8619919","30601.4927955","16612.9561754","16612.7775574","NA","NA","6341.47516978","16610.7547589","NA","29858.0145368","NA","NA","NA","NA","NA","NA","NA","31024.5317563","NA","NA","30679.7136567","NA","NA","NA","NA","NA","29843.0804228","NA","Tutorial: Gaze cuing","0","0","0","Greeble","yes","1024"
"undefined","undefined","undefined","undefined","white","no","psycho","psycho","psycho","0","1","uniform","undefined","undefined","NA","NA","y","0","0","9","9","0","0","NA","NA","0","0","NA","9","NA","NA","NA","NA","NA","NA","NA","9","NA","NA","9","NA","0","NA","0","NA","9","NA","NA","NA","02/13/18 14:51:39","The main experiment item","yes","","Python Experiment.osexp","C:\Users\EfKAy\Desktop","no","mono","no","18","no","black","no","Ok","NA","yes","Male","768","psycho","9","9","0","C:/Users/EfKAy/Desktop/subject-1.csv","psycho","Jazzy James","3.1.9","0","y","space","NA","NA","NA","NA","NA","282.574317698","1697.32858182","NA","NA","NA","NA","NA","NA","NA","rechts","links","2","legacy","1024","2","48000","-16","experiment","1","odd","NA","6422.94246599","32239.523254","32144.580558","16612.9561754","16612.7775574","NA","NA","6341.47516978","16610.7547589","NA","31400.8482306","NA","NA","NA","NA","NA","NA","NA","32522.9049459","NA","NA","32239.3697861","NA","NA","NA","NA","NA","31392.9279558","NA","Tutorial: Gaze cuing","0","0","0","Human","yes","1024"
"undefined","undefined","undefined","undefined","white","no","psycho","psycho","psycho","0","0","uniform","undefined","undefined","NA","NA","m","0","0","10","10","0","0","NA","NA","0","0","NA","10","NA","NA","NA","NA","NA","NA","NA","10","NA","NA","10","NA","0","NA","0","NA","10","NA","NA","NA","02/13/18 14:51:39","The main experiment item","yes","","Python Experiment.osexp","C:\Users\EfKAy\Desktop","no","mono","no","18","no","black","no","Ok","NA","yes","Male","768","psycho","10","10","0","C:/Users/EfKAy/Desktop/subject-1.csv","psycho","Jazzy James","3.1.9","0","m","space","NA","NA","NA","NA","NA","374.593425726","1697.32858182","NA","NA","NA","NA","NA","NA","NA","rechts","rechts","2","legacy","1024","2","48000","-16","experiment","1","odd","NA","6422.94246599","33698.5270681","33620.6644695","16612.9561754","16612.7775574","NA","NA","6341.47516978","16610.7547589","NA","32876.6601088","NA","NA","NA","NA","NA","NA","NA","34073.9150363","NA","NA","33698.3653879","NA","NA","NA","NA","NA","32863.7472534","NA","Tutorial: Gaze cuing","0","0","0","Greeble","yes","1024"
"undefined","undefined","undefined","undefined","white","no","psycho","psycho","psycho","0","0","uniform","undefined","undefined","NA","NA","m","0","0","11","11","0","0","NA","NA","0","0","NA","11","NA","NA","NA","NA","NA","NA","NA","11","NA","NA","11","NA","0","NA","0","NA","11","NA","NA","NA","02/13/18 14:51:39","The main experiment item","yes","","Python Experiment.osexp","C:\Users\EfKAy\Desktop","no","mono","no","18","no","black","no","Ok","NA","yes","Male","768","psycho","11","11","0","C:/Users/EfKAy/Desktop/subject-1.csv","psycho","Jazzy James","3.1.9","0","m","space","NA","NA","NA","NA","NA","319.947584832","1697.32858182","NA","NA","NA","NA","NA","NA","NA","links","rechts","2","legacy","1024","2","48000","-16","experiment","1","odd","NA","6422.94246599","35274.9276161","35196.7339581","16612.9561754","16612.7775574","NA","NA","6341.47516978","16610.7547589","NA","34453.1797355","NA","NA","NA","NA","NA","NA","NA","35595.6451064","NA","NA","35274.7833871","NA","NA","NA","NA","NA","34446.3665849","NA","Tutorial: Gaze cuing","0","0","0","Greeble","yes","1024"
"undefined","undefined","undefined","undefined","white","no","psycho","psycho","psycho","0","1","uniform","undefined","undefined","NA","NA","m","0","0","12","12","0","0","NA","NA","0","0","NA","12","NA","NA","NA","NA","NA","NA","NA","12","NA","NA","12","NA","0","NA","0","NA","12","NA","NA","NA","02/13/18 14:51:39","The main experiment item","yes","","Python Experiment.osexp","C:\Users\EfKAy\Desktop","no","mono","no","18","no","black","no","Ok","NA","yes","Male","768","psycho","12","12","0","C:/Users/EfKAy/Desktop/subject-1.csv","psycho","Jazzy James","3.1.9","0","m","space","NA","NA","NA","NA","NA","409.319244405","1697.32858182","NA","NA","NA","NA","NA","NA","NA","rechts","links","2","legacy","1024","2","48000","-16","experiment","1","odd","NA","6422.94246599","36750.7153705","36672.8271085","16612.9561754","16612.7775574","NA","NA","6341.47516978","16610.7547589","NA","35928.8381458","NA","NA","NA","NA","NA","NA","NA","37160.8014409","NA","NA","36750.5542037","NA","NA","NA","NA","NA","35921.331567","NA","Tutorial: Gaze cuing","0","0","0","Greeble","yes","1024"
"undefined","undefined","undefined","undefined","white","no","psycho","psycho","psycho","0","0","uniform","undefined","undefined","NA","NA","y","0","0","13","13","0","0","NA","NA","0","0","NA","13","NA","NA","NA","NA","NA","NA","NA","13","NA","NA","13","NA","0","NA","0","NA","13","NA","NA","NA","02/13/18 14:51:39","The main experiment item","yes","","Python Experiment.osexp","C:\Users\EfKAy\Desktop","no","mono","no","18","no","black","no","Ok","NA","yes","Male","768","psycho","13","13","0","C:/Users/EfKAy/Desktop/subject-1.csv","psycho","Jazzy James","3.1.9","0","y","space","NA","NA","NA","NA","NA","313.065656002","1697.32858182","NA","NA","NA","NA","NA","NA","NA","links","rechts","2","legacy","1024","2","48000","-16","experiment","1","odd","NA","6422.94246599","38394.1947071","38298.9188987","16612.9561754","16612.7775574","NA","NA","6341.47516978","16610.7547589","NA","37555.4627107","NA","NA","NA","NA","NA","NA","NA","38708.1190643","NA","NA","38394.0473985","NA","NA","NA","NA","NA","37544.0460383","NA","Tutorial: Gaze cuing","0","0","0","Human","yes","1024"
"undefined","undefined","undefined","undefined","white","no","psycho","psycho","psycho","0","1","uniform","undefined","undefined","NA","NA","m","0","0","14","14","0","0","NA","NA","0","0","NA","14","NA","NA","NA","NA","NA","NA","NA","14","NA","NA","14","NA","0","NA","0","NA","14","NA","NA","NA","02/13/18 14:51:39","The main experiment item","yes","","Python Experiment.osexp","C:\Users\EfKAy\Desktop","no","mono","no","18","no","black","no","Ok","NA","yes","Male","768","psycho","14","14","0","C:/Users/EfKAy/Desktop/subject-1.csv","psycho","Jazzy James","3.1.9","0","m","space","NA","NA","NA","NA","NA","342.960060894","1697.32858182","NA","NA","NA","NA","NA","NA","NA","rechts","links","2","legacy","1024","2","48000","-16","experiment","1","odd","NA","6422.94246599","39953.7486957","39841.9861304","16612.9561754","16612.7775574","NA","NA","6341.47516978","16610.7547589","NA","39098.3764746","NA","NA","NA","NA","NA","NA","NA","40297.4699365","NA","NA","39953.6167852","NA","NA","NA","NA","NA","39086.777078","NA","Tutorial: Gaze cuing","0","0","0","Greeble","yes","1024"
"undefined","undefined","undefined","undefined","white","no","psycho","psycho","psycho","0","0","uniform","undefined","undefined","NA","NA","m","0","0","15","15","0","0","NA","NA","0","0","NA","15","NA","NA","NA","NA","NA","NA","NA","15","NA","NA","15","NA","0","NA","0","NA","15","NA","NA","NA","02/13/18 14:51:39","The main experiment item","yes","","Python Experiment.osexp","C:\Users\EfKAy\Desktop","no","mono","no","18","no","black","no","Ok","NA","yes","Male","768","psycho","15","15","0","C:/Users/EfKAy/Desktop/subject-1.csv","psycho","Jazzy James","3.1.9","0","y","space","NA","NA","NA","NA","NA","259.460727375","1697.32858182","NA","NA","NA","NA","NA","NA","NA","links","rechts","2","legacy","1024","2","48000","-16","experiment","1","odd","NA","6422.94246599","41513.4315151","41435.1541941","16612.9561754","16612.7775574","NA","NA","6341.47516978","16610.7547589","NA","40691.563016","NA","NA","NA","NA","NA","NA","NA","41773.6539357","NA","NA","41513.2842065","NA","NA","NA","NA","NA","40675.2574436","NA","Tutorial: Gaze cuing","0","0","0","Greeble","yes","1024"
"undefined","undefined","undefined","undefined","white","no","psycho","psycho","psycho","0","0","uniform","undefined","undefined","NA","NA","y","0","0","16","16","0","0","NA","NA","0","0","NA","16","NA","NA","NA","NA","NA","NA","NA","16","NA","NA","16","NA","0","NA","0","NA","16","NA","NA","NA","02/13/18 14:51:39","The main experiment item","yes","","Python Experiment.osexp","C:\Users\EfKAy\Desktop","no","mono","no","18","no","black","no","Ok","NA","yes","Male","768","psycho","16","16","0","C:/Users/EfKAy/Desktop/subject-1.csv","psycho","Jazzy James","3.1.9","0","y","space","NA","NA","NA","NA","NA","328.599269822","1697.32858182","NA","NA","NA","NA","NA","NA","NA","links","links","2","legacy","1024","2","48000","-16","experiment","1","odd","NA","6422.94246599","42989.1756416","42894.1626277","16612.9561754","16612.7775574","NA","NA","6341.47516978","16610.7547589","NA","42150.7936956","NA","NA","NA","NA","NA","NA","NA","43318.5247994","NA","NA","42989.0247401","NA","NA","NA","NA","NA","42130.681197","NA","Tutorial: Gaze cuing","0","0","0","Human","yes","1024"
"undefined","undefined","undefined","undefined","white","no","psycho","psycho","psycho","0","1","uniform","undefined","undefined","NA","NA","y","0","0","17","17","0","0","NA","NA","0","0","NA","17","NA","NA","NA","NA","NA","NA","NA","17","NA","NA","17","NA","0","NA","0","NA","17","NA","NA","NA","02/13/18 14:51:39","The main experiment item","yes","","Python Experiment.osexp","C:\Users\EfKAy\Desktop","no","mono","no","18","no","black","no","Ok","NA","yes","Male","768","psycho","17","17","0","C:/Users/EfKAy/Desktop/subject-1.csv","psycho","Jazzy James","3.1.9","0","y","space","NA","NA","NA","NA","NA","379.897048233","1697.32858182","NA","NA","NA","NA","NA","NA","NA","rechts","links","2","legacy","1024","2","48000","-16","experiment","1","odd","NA","6422.94246599","44532.196679","44437.2396115","16612.9561754","16612.7775574","NA","NA","6341.47516978","16610.7547589","NA","43693.3820461","NA","NA","NA","NA","NA","NA","NA","44912.862093","NA","NA","44532.0190875","NA","NA","NA","NA","NA","43684.8094048","NA","Tutorial: Gaze cuing","0","0","0","Human","yes","1024"
"undefined","undefined","undefined","undefined","white","no","psycho","psycho","psycho","0","0","uniform","undefined","undefined","NA","NA","y","0","0","18","18","0","0","NA","NA","0","0","NA","18","NA","NA","NA","NA","NA","NA","NA","18","NA","NA","18","NA","0","NA","0","NA","18","NA","NA","NA","02/13/18 14:51:39","The main experiment item","yes","","Python Experiment.osexp","C:\Users\EfKAy\Desktop","no","mono","no","18","no","black","no","Ok","NA","yes","Male","768","psycho","18","18","0","C:/Users/EfKAy/Desktop/subject-1.csv","psycho","Jazzy James","3.1.9","0","y","space","NA","NA","NA","NA","NA","337.619996191","1697.32858182","NA","NA","NA","NA","NA","NA","NA","links","rechts","2","legacy","1024","2","48000","-16","experiment","1","odd","NA","6422.94246599","46142.8852261","46048.3711109","16612.9561754","16612.7775574","NA","NA","6341.47516978","16610.7547589","NA","45304.2589634","NA","NA","NA","NA","NA","NA","NA","46481.2782074","NA","NA","46142.7291919","NA","NA","NA","NA","NA","45281.1197095","NA","Tutorial: Gaze cuing","0","0","0","Human","yes","1024"
"undefined","undefined","undefined","undefined","white","no","psycho","psycho","psycho","0","0","uniform","undefined","undefined","NA","NA","y","0","0","19","19","0","0","NA","NA","0","0","NA","19","NA","NA","NA","NA","NA","NA","NA","19","NA","NA","19","NA","0","NA","0","NA","19","NA","NA","NA","02/13/18 14:51:39","The main experiment item","yes","","Python Experiment.osexp","C:\Users\EfKAy\Desktop","no","mono","no","18","no","black","no","Ok","NA","yes","Male","768","psycho","19","19","0","C:/Users/EfKAy/Desktop/subject-1.csv","psycho","Jazzy James","3.1.9","0","y","space","NA","NA","NA","NA","NA","420.920180815","1697.32858182","NA","NA","NA","NA","NA","NA","NA","links","rechts","2","legacy","1024","2","48000","-16","experiment","1","odd","NA","6422.94246599","47719.2939864","47624.4221217","16612.9561754","16612.7775574","NA","NA","6341.47516978","16610.7547589","NA","46880.6589981","NA","NA","NA","NA","NA","NA","NA","48140.9861258","NA","NA","47719.1456512","NA","NA","NA","NA","NA","46861.4991292","NA","Tutorial: Gaze cuing","0","0","0","Human","yes","1024"
"undefined","undefined","undefined","undefined","white","no","psycho","psycho","psycho","0","1","uniform","undefined","undefined","NA","NA","m","0","0","20","20","0","0","NA","NA","0","0","NA","20","NA","NA","NA","NA","NA","NA","NA","20","NA","NA","20","NA","0","NA","0","NA","20","NA","NA","NA","02/13/18 14:51:39","The main experiment item","yes","","Python Experiment.osexp","C:\Users\EfKAy\Desktop","no","mono","no","18","no","black","no","Ok","NA","yes","Male","768","psycho","20","20","0","C:/Users/EfKAy/Desktop/subject-1.csv","psycho","Jazzy James","3.1.9","0","m","space","NA","NA","NA","NA","NA","309.663186865","1697.32858182","NA","NA","NA","NA","NA","NA","NA","rechts","links","2","legacy","1024","2","48000","-16","experiment","1","odd","NA","6422.94246599","49396.3088676","49284.6073815","16612.9561754","16612.7775574","NA","NA","6341.47516978","16610.7547589","NA","48540.9474252","NA","NA","NA","NA","NA","NA","NA","49706.7712164","NA","NA","49396.1749041","NA","NA","NA","NA","NA","48526.5045109","NA","Tutorial: Gaze cuing","0","0","0","Greeble","yes","1024"
"undefined","undefined","undefined","undefined","white","no","psycho","psycho","psycho","0","0","uniform","undefined","undefined","NA","NA","y","0","0","21","21","0","0","NA","NA","0","0","NA","21","NA","NA","NA","NA","NA","NA","NA","21","NA","NA","21","NA","0","NA","0","NA","21","NA","NA","NA","02/13/18 14:51:39","The main experiment item","yes","","Python Experiment.osexp","C:\Users\EfKAy\Desktop","no","mono","no","18","no","black","no","Ok","NA","yes","Male","768","psycho","21","21","0","C:/Users/EfKAy/Desktop/subject-1.csv","psycho","Jazzy James","3.1.9","0","y","space","NA","NA","NA","NA","NA","281.825456259","1697.32858182","NA","NA","NA","NA","NA","NA","NA","rechts","rechts","2","legacy","1024","2","48000","-16","experiment","1","odd","NA","6422.94246599","51006.2618982","50911.6415361","16612.9561754","16612.7775574","NA","NA","6341.47516978","16610.7547589","NA","50167.6269099","NA","NA","NA","NA","NA","NA","NA","51288.8582866","NA","NA","51006.1156162","NA","NA","NA","NA","NA","50157.2316456","NA","Tutorial: Gaze cuing","0","0","0","Human","yes","1024"
"undefined","undefined","undefined","undefined","white","no","psycho","psycho","psycho","0","0","uniform","undefined","undefined","NA","NA","m","0","0","22","22","0","0","NA","NA","0","0","NA","22","NA","NA","NA","NA","NA","NA","NA","22","NA","NA","22","NA","0","NA","0","NA","22","NA","NA","NA","02/13/18 14:51:39","The main experiment item","yes","","Python Experiment.osexp","C:\Users\EfKAy\Desktop","no","mono","no","18","no","black","no","Ok","NA","yes","Male","768","psycho","22","22","0","C:/Users/EfKAy/Desktop/subject-1.csv","psycho","Jazzy James","3.1.9","0","m","space","NA","NA","NA","NA","NA","323.161683753","1697.32858182","NA","NA","NA","NA","NA","NA","NA","rechts","rechts","2","legacy","1024","2","48000","-16","experiment","1","odd","NA","6422.94246599","52498.747877","52420.7066604","16612.9561754","16612.7775574","NA","NA","6341.47516978","16610.7547589","NA","51676.9147935","NA","NA","NA","NA","NA","NA","NA","52822.6779264","NA","NA","52498.5954357","NA","NA","NA","NA","NA","51657.9253305","NA","Tutorial: Gaze cuing","0","0","0","Greeble","yes","1024"
"undefined","undefined","undefined","undefined","white","no","psycho","psycho","psycho","0","0","uniform","undefined","undefined","NA","NA","y","0","0","23","23","0","0","NA","NA","0","0","NA","23","NA","NA","NA","NA","NA","NA","NA","23","NA","NA","23","NA","0","NA","0","NA","23","NA","NA","NA","02/13/18 14:51:39","The main experiment item","yes","","Python Experiment.osexp","C:\Users\EfKAy\Desktop","no","mono","no","18","no","black","no","Ok","NA","yes","Male","768","psycho","23","23","0","C:/Users/EfKAy/Desktop/subject-1.csv","psycho","Jazzy James","3.1.9","0","y","space","NA","NA","NA","NA","NA","297.274893739","1697.32858182","NA","NA","NA","NA","NA","NA","NA","rechts","rechts","2","legacy","1024","2","48000","-16","experiment","1","odd","NA","6422.94246599","54041.5867034","53946.7918294","16612.9561754","16612.7775574","NA","NA","6341.47516978","16610.7547589","NA","53202.9635203","NA","NA","NA","NA","NA","NA","NA","54339.6186709","NA","NA","54041.4527399","NA","NA","NA","NA","NA","53190.6563239","NA","Tutorial: Gaze cuing","0","0","0","Human","yes","1024"
"undefined","undefined","undefined","undefined","white","no","psycho","psycho","psycho","0","0","uniform","undefined","undefined","NA","NA","y","0","0","24","24","0","0","NA","NA","0","0","NA","24","NA","NA","NA","NA","NA","NA","NA","24","NA","NA","24","NA","0","NA","0","NA","24","NA","NA","NA","02/13/18 14:51:39","The main experiment item","yes","","Python Experiment.osexp","C:\Users\EfKAy\Desktop","no","mono","no","18","no","black","no","Ok","NA","yes","Male","768","psycho","24","24","0","C:/Users/EfKAy/Desktop/subject-1.csv","psycho","Jazzy James","3.1.9","0","y","space","NA","NA","NA","NA","NA","342.146527393","1697.32858182","NA","NA","NA","NA","NA","NA","NA","links","rechts","2","legacy","1024","2","48000","-16","experiment","1","odd","NA","6422.94246599","55584.4558128","55489.889344","16612.9561754","16612.7775574","NA","NA","6341.47516978","16610.7547589","NA","54745.8880629","NA","NA","NA","NA","NA","NA","NA","55927.4882448","NA","NA","55584.3095308","NA","NA","NA","NA","NA","54725.4912126","NA","Tutorial: Gaze cuing","0","0","0","Human","yes","1024"
"undefined","undefined","undefined","undefined","white","no","psycho","psycho","psycho","0","0","uniform","undefined","undefined","NA","NA","y","0","0","25","25","0","0","NA","NA","0","0","NA","25","NA","NA","NA","NA","NA","NA","NA","25","NA","NA","25","NA","0","NA","0","NA","25","NA","NA","NA","02/13/18 14:51:39","The main experiment item","yes","","Python Experiment.osexp","C:\Users\EfKAy\Desktop","no","mono","no","18","no","black","no","Ok","NA","yes","Male","768","psycho","25","25","0","C:/Users/EfKAy/Desktop/subject-1.csv","psycho","Jazzy James","3.1.9","0","y","space","NA","NA","NA","NA","NA","286.81085115","1697.32858182","NA","NA","NA","NA","NA","NA","NA","links","links","2","legacy","1024","2","48000","-16","experiment","1","odd","NA","6422.94246599","57160.8881835","57066.0034872","16612.9561754","16612.7775574","NA","NA","6341.47516978","16610.7547589","NA","56322.2573014","NA","NA","NA","NA","NA","NA","NA","57448.4668871","NA","NA","57160.7280432","NA","NA","NA","NA","NA","56304.0218325","NA","Tutorial: Gaze cuing","0","0","0","Human","yes","1024"
"undefined","undefined","undefined","undefined","white","no","psycho","psycho","psycho","0","0","uniform","undefined","undefined","NA","NA","m","0","0","26","26","0","0","NA","NA","0","0","NA","26","NA","NA","NA","NA","NA","NA","NA","26","NA","NA","26","NA","0","NA","0","NA","26","NA","NA","NA","02/13/18 14:51:39","The main experiment item","yes","","Python Experiment.osexp","C:\Users\EfKAy\Desktop","no","mono","no","18","no","black","no","Ok","NA","yes","Male","768","psycho","26","26","0","C:/Users/EfKAy/Desktop/subject-1.csv","psycho","Jazzy James","3.1.9","0","m","space","NA","NA","NA","NA","NA","347.171957372","1697.32858182","NA","NA","NA","NA","NA","NA","NA","links","rechts","2","legacy","1024","2","48000","-16","experiment","1","odd","NA","6422.94246599","58653.3618438","58575.0870891","16612.9561754","16612.7775574","NA","NA","6341.47516978","16610.7547589","NA","57831.5744414","NA","NA","NA","NA","NA","NA","NA","59001.2970342","NA","NA","58653.2145352","NA","NA","NA","NA","NA","57811.8941164","NA","Tutorial: Gaze cuing","0","0","0","Greeble","yes","1024"
"undefined","undefined","undefined","undefined","white","no","psycho","psycho","psycho","0","0","uniform","undefined","undefined","NA","NA","y","0","0","27","27","0","0","NA","NA","0","0","NA","27","NA","NA","NA","NA","NA","NA","NA","27","NA","NA","27","NA","0","NA","0","NA","27","NA","NA","NA","02/13/18 14:51:39","The main experiment item","yes","","Python Experiment.osexp","C:\Users\EfKAy\Desktop","no","mono","no","18","no","black","no","Ok","NA","yes","Male","768","psycho","27","27","0","C:/Users/EfKAy/Desktop/subject-1.csv","psycho","Jazzy James","3.1.9","0","y","space","NA","NA","NA","NA","NA","298.291682298","1697.32858182","NA","NA","NA","NA","NA","NA","NA","links","links","2","legacy","1024","2","48000","-16","experiment","1","odd","NA","6422.94246599","60229.8029401","60135.1574277","16612.9561754","16612.7775574","NA","NA","6341.47516978","16610.7547589","NA","59391.1191911","NA","NA","NA","NA","NA","NA","NA","60528.8624749","NA","NA","60229.6628173","NA","NA","NA","NA","NA","59382.5675939","NA","Tutorial: Gaze cuing","0","0","0","Human","yes","1024"
"undefined","undefined","undefined","undefined","white","no","psycho","psycho","psycho","0","0","uniform","undefined","undefined","NA","NA","m","0","0","28","28","0","0","NA","NA","0","0","NA","28","NA","NA","NA","NA","NA","NA","NA","28","NA","NA","28","NA","0","NA","0","NA","28","NA","NA","NA","02/13/18 14:51:39","The main experiment item","yes","","Python Experiment.osexp","C:\Users\EfKAy\Desktop","no","mono","no","18","no","black","no","Ok","NA","yes","Male","768","psycho","28","28","0","C:/Users/EfKAy/Desktop/subject-1.csv","psycho","Jazzy James","3.1.9","0","y","space","NA","NA","NA","NA","NA","339.033542732","1697.32858182","NA","NA","NA","NA","NA","NA","NA","rechts","rechts","2","legacy","1024","2","48000","-16","experiment","1","odd","NA","6422.94246599","61772.6705097","61694.2484465","16612.9561754","16612.7775574","NA","NA","6341.47516978","16610.7547589","NA","60950.7722409","NA","NA","NA","NA","NA","NA","NA","62112.4965418","NA","NA","61772.5232011","NA","NA","NA","NA","NA","60928.7077752","NA","Tutorial: Gaze cuing","0","0","0","Greeble","yes","1024"
"undefined","undefined","undefined","undefined","white","no","psycho","psycho","psycho","0","0","uniform","undefined","undefined","NA","NA","m","0","0","29","29","0","0","NA","NA","0","0","NA","29","NA","NA","NA","NA","NA","NA","NA","29","NA","NA","29","NA","0","NA","0","NA","29","NA","NA","NA","02/13/18 14:51:39","The main experiment item","yes","","Python Experiment.osexp","C:\Users\EfKAy\Desktop","no","mono","no","18","no","black","no","Ok","NA","yes","Male","768","psycho","29","29","0","C:/Users/EfKAy/Desktop/subject-1.csv","psycho","Jazzy James","3.1.9","0","m","space","NA","NA","NA","NA","NA","438.499176971","1697.32858182","NA","NA","NA","NA","NA","NA","NA","links","links","2","legacy","1024","2","48000","-16","experiment","1","odd","NA","6422.94246599","63281.9804639","63204.3288195","16612.9561754","16612.7775574","NA","NA","6341.47516978","16610.7547589","NA","62460.1099117","NA","NA","NA","NA","NA","NA","NA","63721.3999346","NA","NA","63281.832642","NA","NA","NA","NA","NA","62448.6614166","NA","Tutorial: Gaze cuing","0","0","0","Greeble","yes","1024"
"undefined","undefined","undefined","undefined","white","no","psycho","psycho","psycho","0","0","uniform","undefined","undefined","NA","NA","m","0","0","30","30","0","0","NA","NA","0","0","NA","30","NA","NA","NA","NA","NA","NA","NA","30","NA","NA","30","NA","0","NA","0","NA","30","NA","NA","NA","02/13/18 14:51:39","The main experiment item","yes","","Python Experiment.osexp","C:\Users\EfKAy\Desktop","no","mono","no","18","no","black","no","Ok","NA","yes","Male","768","psycho","30","30","0","C:/Users/EfKAy/Desktop/subject-1.csv","psycho","Jazzy James","3.1.9","0","m","space","NA","NA","NA","NA","NA","331.651688582","1697.32858182","NA","NA","NA","NA","NA","NA","NA","links","links","2","legacy","1024","2","48000","-16","experiment","1","odd","NA","6422.94246599","64925.4587739","64847.4473269","16612.9561754","16612.7775574","NA","NA","6341.47516978","16610.7547589","NA","64103.8351047","NA","NA","NA","NA","NA","NA","NA","65257.8716424","NA","NA","64925.3094122","NA","NA","NA","NA","NA","64091.2959101","NA","Tutorial: Gaze cuing","0","0","0","Greeble","yes","1024"
"undefined","undefined","undefined","undefined","white","no","psycho","psycho","psycho","0","0","uniform","undefined","undefined","NA","NA","y","0","0","31","31","0","0","NA","NA","0","0","NA","31","NA","NA","NA","NA","NA","NA","NA","31","NA","NA","31","NA","0","NA","0","NA","31","NA","NA","NA","02/13/18 14:51:39","The main experiment item","yes","","Python Experiment.osexp","C:\Users\EfKAy\Desktop","no","mono","no","18","no","black","no","Ok","NA","yes","Male","768","psycho","31","31","0","C:/Users/EfKAy/Desktop/subject-1.csv","psycho","Jazzy James","3.1.9","0","y","space","NA","NA","NA","NA","NA","290.582361669","1697.32858182","NA","NA","NA","NA","NA","NA","NA","rechts","rechts","2","legacy","1024","2","48000","-16","experiment","1","odd","NA","6422.94246599","66485.00609","66390.5042933","16612.9561754","16612.7775574","NA","NA","6341.47516978","16610.7547589","NA","65646.3890661","NA","NA","NA","NA","NA","NA","NA","66776.3496315","NA","NA","66484.8726397","NA","NA","NA","NA","NA","65630.8066916","NA","Tutorial: Gaze cuing","0","0","0","Human","yes","1024"
"undefined","undefined","undefined","undefined","white","no","psycho","psycho","psycho","0","0","uniform","undefined","undefined","NA","NA","m","0","0","32","32","1","1","NA","NA","0","0","NA","32","NA","NA","NA","NA","NA","NA","NA","32","NA","NA","32","NA","0","NA","1","NA","32","NA","NA","NA","02/13/18 14:51:39","The main experiment item","yes","","Python Experiment.osexp","C:\Users\EfKAy\Desktop","no","mono","no","18","no","black","no","Ok","NA","yes","Male","768","psycho","0","0","1","C:/Users/EfKAy/Desktop/subject-1.csv","psycho","Jazzy James","3.1.9","0","m","space","NA","NA","NA","NA","NA","351.671798515","1697.32858182","NA","NA","NA","NA","NA","NA","NA","links","rechts","2","legacy","1024","2","48000","-16","experiment","1","odd","NA","6422.94246599","68078.2408788","68000.6087386","67040.9040539","67040.549384","NA","NA","6341.47516978","16610.7547589","NA","67256.3462029","NA","NA","NA","NA","NA","NA","NA","68430.6815563","NA","NA","68078.0889508","NA","NA","NA","NA","NA","67246.113132","NA","Tutorial: Gaze cuing","0","0","0","Greeble","yes","1024"
"undefined","undefined","undefined","undefined","white","no","psycho","psycho","psycho","0","0","uniform","undefined","undefined","NA","NA","y","0","0","33","33","1","1","NA","NA","0","0","NA","33","NA","NA","NA","NA","NA","NA","NA","33","NA","NA","33","NA","0","NA","1","NA","33","NA","NA","NA","02/13/18 14:51:39","The main experiment item","yes","","Python Experiment.osexp","C:\Users\EfKAy\Desktop","no","mono","no","18","no","black","no","Ok","NA","yes","Male","768","psycho","1","1","1","C:/Users/EfKAy/Desktop/subject-1.csv","psycho","Jazzy James","3.1.9","0","y","space","NA","NA","NA","NA","NA","381.077570035","1697.32858182","NA","NA","NA","NA","NA","NA","NA","links","rechts","2","legacy","1024","2","48000","-16","experiment","1","odd","NA","6422.94246599","69688.1117862","69593.7234222","67040.9040539","67040.549384","NA","NA","6341.47516978","16610.7547589","NA","68849.4880898","NA","NA","NA","NA","NA","NA","NA","70069.9546423","NA","NA","69687.963451","NA","NA","NA","NA","NA","68824.9445283","NA","Tutorial: Gaze cuing","0","0","0","Human","yes","1024"
"undefined","undefined","undefined","undefined","white","no","psycho","psycho","psycho","0","0","uniform","undefined","undefined","NA","NA","m","0","0","34","34","1","1","NA","NA","0","0","NA","34","NA","NA","NA","NA","NA","NA","NA","34","NA","NA","34","NA","0","NA","1","NA","34","NA","NA","NA","02/13/18 14:51:39","The main experiment item","yes","","Python Experiment.osexp","C:\Users\EfKAy\Desktop","no","mono","no","18","no","black","no","Ok","NA","yes","Male","768","psycho","2","2","1","C:/Users/EfKAy/Desktop/subject-1.csv","psycho","Jazzy James","3.1.9","0","m","space","NA","NA","NA","NA","NA","330.68981995","1697.32858182","NA","NA","NA","NA","NA","NA","NA","links","links","2","legacy","1024","2","48000","-16","experiment","1","odd","NA","6422.94246599","71247.7561104","71169.7805923","67040.9040539","67040.549384","NA","NA","6341.47516978","16610.7547589","NA","70425.9178942","NA","NA","NA","NA","NA","NA","NA","71579.1937652","NA","NA","71247.6052089","NA","NA","NA","NA","NA","70418.0006991","NA","Tutorial: Gaze cuing","0","0","0","Greeble","yes","1024"
"undefined","undefined","undefined","undefined","white","no","psycho","psycho","psycho","0","1","uniform","undefined","undefined","NA","NA","m","0","0","35","35","1","1","NA","NA","0","0","NA","35","NA","NA","NA","NA","NA","NA","NA","35","NA","NA","35","NA","0","NA","1","NA","35","NA","NA","NA","02/13/18 14:51:39","The main experiment item","yes","","Python Experiment.osexp","C:\Users\EfKAy\Desktop","no","mono","no","18","no","black","no","Ok","NA","yes","Male","768","psycho","3","3","1","C:/Users/EfKAy/Desktop/subject-1.csv","psycho","Jazzy James","3.1.9","0","m","space","NA","NA","NA","NA","NA","347.158612341","1697.32858182","NA","NA","NA","NA","NA","NA","NA","rechts","links","2","legacy","1024","2","48000","-16","experiment","1","odd","NA","6422.94246599","72773.8407661","72695.8924514","67040.9040539","67040.549384","NA","NA","6341.47516978","16610.7547589","NA","71951.9188869","NA","NA","NA","NA","NA","NA","NA","73121.7605584","NA","NA","72773.694484","NA","NA","NA","NA","NA","71938.0611007","NA","Tutorial: Gaze cuing","0","0","0","Greeble","yes","1024"
"undefined","undefined","undefined","undefined","white","no","psycho","psycho","psycho","0","1","uniform","undefined","undefined","NA","NA","m","0","0","36","36","1","1","NA","NA","0","0","NA","36","NA","NA","NA","NA","NA","NA","NA","36","NA","NA","36","NA","0","NA","1","NA","36","NA","NA","NA","02/13/18 14:51:39","The main experiment item","yes","","Python Experiment.osexp","C:\Users\EfKAy\Desktop","no","mono","no","18","no","black","no","Ok","NA","yes","Male","768","psycho","4","4","1","C:/Users/EfKAy/Desktop/subject-1.csv","psycho","Jazzy James","3.1.9","0","m","space","NA","NA","NA","NA","NA","258.240683759","1697.32858182","NA","NA","NA","NA","NA","NA","NA","rechts","links","2","legacy","1024","2","48000","-16","experiment","1","odd","NA","6422.94246599","74350.2043586","74271.9799044","67040.9040539","67040.549384","NA","NA","6341.47516978","16610.7547589","NA","73528.3943723","NA","NA","NA","NA","NA","NA","NA","74609.3909996","NA","NA","74350.070395","NA","NA","NA","NA","NA","73510.0885853","NA","Tutorial: Gaze cuing","0","0","0","Greeble","yes","1024"
"undefined","undefined","undefined","undefined","white","no","psycho","psycho","psycho","0","1","uniform","undefined","undefined","NA","NA","y","0","0","37","37","1","1","NA","NA","0","0","NA","37","NA","NA","NA","NA","NA","NA","NA","37","NA","NA","37","NA","0","NA","1","NA","37","NA","NA","NA","02/13/18 14:51:39","The main experiment item","yes","","Python Experiment.osexp","C:\Users\EfKAy\Desktop","no","mono","no","18","no","black","no","Ok","NA","yes","Male","768","psycho","5","5","1","C:/Users/EfKAy/Desktop/subject-1.csv","psycho","Jazzy James","3.1.9","0","y","space","NA","NA","NA","NA","NA","304.64134978","1697.32858182","NA","NA","NA","NA","NA","NA","NA","rechts","links","2","legacy","1024","2","48000","-16","experiment","1","odd","NA","6422.94246599","75842.7514165","75748.0566301","67040.9040539","67040.549384","NA","NA","6341.47516978","16610.7547589","NA","75004.1852064","NA","NA","NA","NA","NA","NA","NA","76148.1601054","NA","NA","75842.6046212","NA","NA","NA","NA","NA","74982.7099751","NA","Tutorial: Gaze cuing","0","0","0","Human","yes","1024"
"undefined","undefined","undefined","undefined","white","no","psycho","psycho","psycho","0","0","uniform","undefined","undefined","NA","NA","y","0","0","38","38","1","1","NA","NA","0","0","NA","38","NA","NA","NA","NA","NA","NA","NA","38","NA","NA","38","NA","0","NA","1","NA","38","NA","NA","NA","02/13/18 14:51:39","The main experiment item","yes","","Python Experiment.osexp","C:\Users\EfKAy\Desktop","no","mono","no","18","no","black","no","Ok","NA","yes","Male","768","psycho","6","6","1","C:/Users/EfKAy/Desktop/subject-1.csv","psycho","Jazzy James","3.1.9","0","y","space","NA","NA","NA","NA","NA","280.328759922","1697.32858182","NA","NA","NA","NA","NA","NA","NA","links","rechts","2","legacy","1024","2","48000","-16","experiment","1","odd","NA","6422.94246599","77335.3154123","77240.1633021","67040.9040539","67040.549384","NA","NA","6341.47516978","16610.7547589","NA","76496.6850435","NA","NA","NA","NA","NA","NA","NA","77616.4217768","NA","NA","77335.168617","NA","NA","NA","NA","NA","76480.7397868","NA","Tutorial: Gaze cuing","0","0","0","Human","yes","1024"
"undefined","undefined","undefined","undefined","white","no","psycho","psycho","psycho","0","0","uniform","undefined","undefined","NA","NA","y","0","0","39","39","1","1","NA","NA","0","0","NA","39","NA","NA","NA","NA","NA","NA","NA","39","NA","NA","39","NA","0","NA","1","NA","39","NA","NA","NA","02/13/18 14:51:39","The main experiment item","yes","","Python Experiment.osexp","C:\Users\EfKAy\Desktop","no","mono","no","18","no","black","no","Ok","NA","yes","Male","768","psycho","7","7","1","C:/Users/EfKAy/Desktop/subject-1.csv","psycho","Jazzy James","3.1.9","0","y","space","NA","NA","NA","NA","NA","269.766682699","1697.32858182","NA","NA","NA","NA","NA","NA","NA","links","rechts","2","legacy","1024","2","48000","-16","experiment","1","odd","NA","6422.94246599","78844.5961101","78750.2246841","67040.9040539","67040.549384","NA","NA","6341.47516978","16610.7547589","NA","78005.9570157","NA","NA","NA","NA","NA","NA","NA","79115.1260258","NA","NA","78844.4503414","NA","NA","NA","NA","NA","77988.0957208","NA","Tutorial: Gaze cuing","0","0","0","Human","yes","1024"
"undefined","undefined","undefined","undefined","white","no","psycho","psycho","psycho","0","0","uniform","undefined","undefined","NA","NA","y","0","0","40","40","1","1","NA","NA","0","0","NA","40","NA","NA","NA","NA","NA","NA","NA","40","NA","NA","40","NA","0","NA","1","NA","40","NA","NA","NA","02/13/18 14:51:39","The main experiment item","yes","","Python Experiment.osexp","C:\Users\EfKAy\Desktop","no","mono","no","18","no","black","no","Ok","NA","yes","Male","768","psycho","8","8","1","C:/Users/EfKAy/Desktop/subject-1.csv","psycho","Jazzy James","3.1.9","0","y","space","NA","NA","NA","NA","NA","230.943940098","1697.32858182","NA","NA","NA","NA","NA","NA","NA","links","rechts","2","legacy","1024","2","48000","-16","experiment","1","odd","NA","6422.94246599","80353.9014449","80259.33087","67040.9040539","67040.549384","NA","NA","6341.47516978","16610.7547589","NA","79515.309058","NA","NA","NA","NA","NA","NA","NA","80586.59769","NA","NA","80353.7556761","NA","NA","NA","NA","NA","79497.2460479","NA","Tutorial: Gaze cuing","0","0","0","Human","yes","1024"
"undefined","undefined","undefined","undefined","white","no","psycho","psycho","psycho","0","0","uniform","undefined","undefined","NA","NA","m","0","0","41","41","1","1","NA","NA","0","0","NA","41","NA","NA","NA","NA","NA","NA","NA","41","NA","NA","41","NA","0","NA","1","NA","41","NA","NA","NA","02/13/18 14:51:39","The main experiment item","yes","","Python Experiment.osexp","C:\Users\EfKAy\Desktop","no","mono","no","18","no","black","no","Ok","NA","yes","Male","768","psycho","9","9","1","C:/Users/EfKAy/Desktop/subject-1.csv","psycho","Jazzy James","3.1.9","0","m","space","NA","NA","NA","NA","NA","299.438328258","1697.32858182","NA","NA","NA","NA","NA","NA","NA","rechts","rechts","2","legacy","1024","2","48000","-16","experiment","1","odd","NA","6422.94246599","81863.2196114","81785.4037205","67040.9040539","67040.549384","NA","NA","6341.47516978","16610.7547589","NA","81041.3490593","NA","NA","NA","NA","NA","NA","NA","82163.427332","NA","NA","81863.0702498","NA","NA","NA","NA","NA","81031.7257535","NA","Tutorial: Gaze cuing","0","0","0","Greeble","yes","1024"
"undefined","undefined","undefined","undefined","white","no","psycho","psycho","psycho","0","1","uniform","undefined","undefined","NA","NA","y","0","0","42","42","1","1","NA","NA","0","0","NA","42","NA","NA","NA","NA","NA","NA","NA","42","NA","NA","42","NA","0","NA","1","NA","42","NA","NA","NA","02/13/18 14:51:39","The main experiment item","yes","","Python Experiment.osexp","C:\Users\EfKAy\Desktop","no","mono","no","18","no","black","no","Ok","NA","yes","Male","768","psycho","10","10","1","C:/Users/EfKAy/Desktop/subject-1.csv","psycho","Jazzy James","3.1.9","0","m","space","NA","NA","NA","NA","NA","303.501889604","1697.32858182","NA","NA","NA","NA","NA","NA","NA","rechts","links","2","legacy","1024","2","48000","-16","experiment","1","odd","NA","6422.94246599","83389.3063203","83294.4970746","67040.9040539","67040.549384","NA","NA","6341.47516978","16610.7547589","NA","82550.730358","NA","NA","NA","NA","NA","NA","NA","83693.5776021","NA","NA","83389.1584984","NA","NA","NA","NA","NA","82528.4626373","NA","Tutorial: Gaze cuing","0","0","0","Human","yes","1024"
"undefined","undefined","undefined","undefined","white","no","psycho","psycho","psycho","0","0","uniform","undefined","undefined","NA","NA","y","0","0","43","43","1","1","NA","NA","0","0","NA","43","NA","NA","NA","NA","NA","NA","NA","43","NA","NA","43","NA","0","NA","1","NA","43","NA","NA","NA","02/13/18 14:51:39","The main experiment item","yes","","Python Experiment.osexp","C:\Users\EfKAy\Desktop","no","mono","no","18","no","black","no","Ok","NA","yes","Male","768","psycho","11","11","1","C:/Users/EfKAy/Desktop/subject-1.csv","psycho","Jazzy James","3.1.9","0","y","space","NA","NA","NA","NA","NA","336.45230615","1697.32858182","NA","NA","NA","NA","NA","NA","NA","links","links","2","legacy","1024","2","48000","-16","experiment","1","odd","NA","6422.94246599","84915.4217722","84820.5986683","67040.9040539","67040.549384","NA","NA","6341.47516978","16610.7547589","NA","84076.7600938","NA","NA","NA","NA","NA","NA","NA","85252.6434706","NA","NA","84915.2734371","NA","NA","NA","NA","NA","84063.9196095","NA","Tutorial: Gaze cuing","0","0","0","Human","yes","1024"
"undefined","undefined","undefined","undefined","white","no","psycho","psycho","psycho","0","0","uniform","undefined","undefined","NA","NA","m","0","0","44","44","1","1","NA","NA","0","0","NA","44","NA","NA","NA","NA","NA","NA","NA","44","NA","NA","44","NA","0","NA","1","NA","44","NA","NA","NA","02/13/18 14:51:39","The main experiment item","yes","","Python Experiment.osexp","C:\Users\EfKAy\Desktop","no","mono","no","18","no","black","no","Ok","NA","yes","Male","768","psycho","12","12","1","C:/Users/EfKAy/Desktop/subject-1.csv","psycho","Jazzy James","3.1.9","0","m","space","NA","NA","NA","NA","NA","298.807519001","1697.32858182","NA","NA","NA","NA","NA","NA","NA","links","links","2","legacy","1024","2","48000","-16","experiment","1","odd","NA","6422.94246599","86491.7720197","86413.679476","67040.9040539","67040.549384","NA","NA","6341.47516978","16610.7547589","NA","85669.9255912","NA","NA","NA","NA","NA","NA","NA","86791.3396921","NA","NA","86491.6236846","NA","NA","NA","NA","NA","85650.2945402","NA","Tutorial: Gaze cuing","0","0","0","Greeble","yes","1024"
"undefined","undefined","undefined","undefined","white","no","psycho","psycho","psycho","0","0","uniform","undefined","undefined","NA","NA","y","0","0","45","45","1","1","NA","NA","0","0","NA","45","NA","NA","NA","NA","NA","NA","NA","45","NA","NA","45","NA","0","NA","1","NA","45","NA","NA","NA","02/13/18 14:51:39","The main experiment item","yes","","Python Experiment.osexp","C:\Users\EfKAy\Desktop","no","mono","no","18","no","black","no","Ok","NA","yes","Male","768","psycho","13","13","1","C:/Users/EfKAy/Desktop/subject-1.csv","psycho","Jazzy James","3.1.9","0","y","space","NA","NA","NA","NA","NA","228.515658082","1697.32858182","NA","NA","NA","NA","NA","NA","NA","rechts","rechts","2","legacy","1024","2","48000","-16","experiment","1","odd","NA","6422.94246599","88017.9069759","87922.7769363","67040.9040539","67040.549384","NA","NA","6341.47516978","16610.7547589","NA","87179.2925184","NA","NA","NA","NA","NA","NA","NA","88247.1827874","NA","NA","88017.7627469","NA","NA","NA","NA","NA","87155.7159582","NA","Tutorial: Gaze cuing","0","0","0","Human","yes","1024"
"undefined","undefined","undefined","undefined","white","no","psycho","psycho","psycho","0","0","uniform","undefined","undefined","NA","NA","m","0","0","46","46","1","1","NA","NA","0","0","NA","46","NA","NA","NA","NA","NA","NA","NA","46","NA","NA","46","NA","0","NA","1","NA","46","NA","NA","NA","02/13/18 14:51:39","The main experiment item","yes","","Python Experiment.osexp","C:\Users\EfKAy\Desktop","no","mono","no","18","no","black","no","Ok","NA","yes","Male","768","psycho","14","14","1","C:/Users/EfKAy/Desktop/subject-1.csv","psycho","Jazzy James","3.1.9","0","m","space","NA","NA","NA","NA","NA","307.190250327","1697.32858182","NA","NA","NA","NA","NA","NA","NA","rechts","rechts","2","legacy","1024","2","48000","-16","experiment","1","odd","NA","6422.94246599","89476.9256749","89398.8356975","67040.9040539","67040.549384","NA","NA","6341.47516978","16610.7547589","NA","88654.9442563","NA","NA","NA","NA","NA","NA","NA","89784.9592284","NA","NA","89476.777853","NA","NA","NA","NA","NA","88636.1729331","NA","Tutorial: Gaze cuing","0","0","0","Greeble","yes","1024"
"undefined","undefined","undefined","undefined","white","no","psycho","psycho","psycho","0","0","uniform","undefined","undefined","NA","NA","m","0","0","47","47","1","1","NA","NA","0","0","NA","47","NA","NA","NA","NA","NA","NA","NA","47","NA","NA","47","NA","0","NA","1","NA","47","NA","NA","NA","02/13/18 14:51:39","The main experiment item","yes","","Python Experiment.osexp","C:\Users\EfKAy\Desktop","no","mono","no","18","no","black","no","Ok","NA","yes","Male","768","psycho","15","15","1","C:/Users/EfKAy/Desktop/subject-1.csv","psycho","Jazzy James","3.1.9","0","y","space","NA","NA","NA","NA","NA","298.43693781","1697.32858182","NA","NA","NA","NA","NA","NA","NA","links","links","2","legacy","1024","2","48000","-16","experiment","1","odd","NA","6422.94246599","90986.2274167","90907.9593346","67040.9040539","67040.549384","NA","NA","6341.47516978","16610.7547589","NA","90164.291166","NA","NA","NA","NA","NA","NA","NA","91285.4245079","NA","NA","90986.0795949","NA","NA","NA","NA","NA","90155.7339227","NA","Tutorial: Gaze cuing","0","0","0","Greeble","yes","1024"
"undefined","undefined","undefined","undefined","white","no","psycho","psycho","psycho","0","1","uniform","undefined","undefined","NA","NA","y","0","0","48","48","1","1","NA","NA","0","0","NA","48","NA","NA","NA","NA","NA","NA","NA","48","NA","NA","48","NA","0","NA","1","NA","48","NA","NA","NA","02/13/18 14:51:39","The main experiment item","yes","","Python Experiment.osexp","C:\Users\EfKAy\Desktop","no","mono","no","18","no","black","no","Ok","NA","yes","Male","768","psycho","16","16","1","C:/Users/EfKAy/Desktop/subject-1.csv","psycho","Jazzy James","3.1.9","0","y","space","NA","NA","NA","NA","NA","320.532713029","1697.32858182","NA","NA","NA","NA","NA","NA","NA","rechts","links","2","legacy","1024","2","48000","-16","experiment","1","odd","NA","6422.94246599","92545.904077","92451.0363185","67040.9040539","67040.549384","NA","NA","6341.47516978","16610.7547589","NA","91707.1500099","NA","NA","NA","NA","NA","NA","NA","92867.2046424","NA","NA","92545.7490693","NA","NA","NA","NA","NA","91683.9768803","NA","Tutorial: Gaze cuing","0","0","0","Human","yes","1024"
"undefined","undefined","undefined","undefined","white","no","psycho","psycho","psycho","0","0","uniform","undefined","undefined","NA","NA","m","0","0","49","49","1","1","NA","NA","0","0","NA","49","NA","NA","NA","NA","NA","NA","NA","49","NA","NA","49","NA","0","NA","1","NA","49","NA","NA","NA","02/13/18 14:51:39","The main experiment item","yes","","Python Experiment.osexp","C:\Users\EfKAy\Desktop","no","mono","no","18","no","black","no","Ok","NA","yes","Male","768","psycho","17","17","1","C:/Users/EfKAy/Desktop/subject-1.csv","psycho","Jazzy James","3.1.9","0","m","space","NA","NA","NA","NA","NA","453.804898754","1697.32858182","NA","NA","NA","NA","NA","NA","NA","links","rechts","2","legacy","1024","2","48000","-16","experiment","1","odd","NA","6422.94246599","94088.6695057","94010.1119391","67040.9040539","67040.549384","NA","NA","6341.47516978","16610.7547589","NA","93266.7430071","NA","NA","NA","NA","NA","NA","NA","94543.3089821","NA","NA","94088.5206573","NA","NA","NA","NA","NA","93250.7166537","NA","Tutorial: Gaze cuing","0","0","0","Greeble","yes","1024"
"undefined","undefined","undefined","undefined","white","no","psycho","psycho","psycho","0","0","uniform","undefined","undefined","NA","NA","y","0","0","50","50","1","1","NA","NA","0","0","NA","50","NA","NA","NA","NA","NA","NA","NA","50","NA","NA","50","NA","0","NA","1","NA","50","NA","NA","NA","02/13/18 14:51:39","The main experiment item","yes","","Python Experiment.osexp","C:\Users\EfKAy\Desktop","no","mono","no","18","no","black","no","Ok","NA","yes","Male","768","psycho","18","18","1","C:/Users/EfKAy/Desktop/subject-1.csv","psycho","Jazzy James","3.1.9","0","y","space","NA","NA","NA","NA","NA","335.070069103","1697.32858182","NA","NA","NA","NA","NA","NA","NA","links","links","2","legacy","1024","2","48000","-16","experiment","1","odd","NA","6422.94246599","95765.6243344","95671.187723","67040.9040539","67040.549384","NA","NA","6341.47516978","16610.7547589","NA","94926.9913991","NA","NA","NA","NA","NA","NA","NA","96101.4535303","NA","NA","95765.4780523","NA","NA","NA","NA","NA","94918.4136251","NA","Tutorial: Gaze cuing","0","0","0","Human","yes","1024"
"undefined","undefined","undefined","undefined","white","no","psycho","psycho","psycho","0","0","uniform","undefined","undefined","NA","NA","y","0","0","51","51","1","1","NA","NA","0","0","NA","51","NA","NA","NA","NA","NA","NA","NA","51","NA","NA","51","NA","0","NA","1","NA","51","NA","NA","NA","02/13/18 14:51:39","The main experiment item","yes","","Python Experiment.osexp","C:\Users\EfKAy\Desktop","no","mono","no","18","no","black","no","Ok","NA","yes","Male","768","psycho","19","19","1","C:/Users/EfKAy/Desktop/subject-1.csv","psycho","Jazzy James","3.1.9","0","y","space","NA","NA","NA","NA","NA","448.312392758","1697.32858182","NA","NA","NA","NA","NA","NA","NA","links","links","2","legacy","1024","2","48000","-16","experiment","1","odd","NA","6422.94246599","97325.2938088","97230.2669365","67040.9040539","67040.549384","NA","NA","6341.47516978","16610.7547589","NA","96486.6819176","NA","NA","NA","NA","NA","NA","NA","97774.3776469","NA","NA","97325.1444471","NA","NA","NA","NA","NA","96469.500706","NA","Tutorial: Gaze cuing","0","0","0","Human","yes","1024"
"undefined","undefined","undefined","undefined","white","no","psycho","psycho","psycho","0","0","uniform","undefined","undefined","NA","NA","m","0","0","52","52","1","1","NA","NA","0","0","NA","52","NA","NA","NA","NA","NA","NA","NA","52","NA","NA","52","NA","0","NA","1","NA","52","NA","NA","NA","02/13/18 14:51:39","The main experiment item","yes","","Python Experiment.osexp","C:\Users\EfKAy\Desktop","no","mono","no","18","no","black","no","Ok","NA","yes","Male","768","psycho","20","20","1","C:/Users/EfKAy/Desktop/subject-1.csv","psycho","Jazzy James","3.1.9","0","m","space","NA","NA","NA","NA","NA","317.650186755","1697.32858182","NA","NA","NA","NA","NA","NA","NA","links","rechts","2","legacy","1024","2","48000","-16","experiment","1","odd","NA","6422.94246599","98985.5637582","98907.394224","67040.9040539","67040.549384","NA","NA","6341.47516978","16610.7547589","NA","98163.6085164","NA","NA","NA","NA","NA","NA","NA","99303.9756381","NA","NA","98985.4149098","NA","NA","NA","NA","NA","98147.4733497","NA","Tutorial: Gaze cuing","0","0","0","Greeble","yes","1024"
"undefined","undefined","undefined","undefined","white","no","psycho","psycho","psycho","0","0","uniform","undefined","undefined","NA","NA","y","0","0","53","53","1","1","NA","NA","0","0","NA","53","NA","NA","NA","NA","NA","NA","NA","53","NA","NA","53","NA","0","NA","1","NA","53","NA","NA","NA","02/13/18 14:51:39","The main experiment item","yes","","Python Experiment.osexp","C:\Users\EfKAy\Desktop","no","mono","no","18","no","black","no","Ok","NA","yes","Male","768","psycho","21","21","1","C:/Users/EfKAy/Desktop/subject-1.csv","psycho","Jazzy James","3.1.9","0","y","space","NA","NA","NA","NA","NA","276.986343417","1697.32858182","NA","NA","NA","NA","NA","NA","NA","rechts","rechts","2","legacy","1024","2","48000","-16","experiment","1","odd","NA","6422.94246599","100545.709034","100450.448624","67040.9040539","67040.549384","NA","NA","6341.47516978","16610.7547589","NA","99706.4832717","NA","NA","NA","NA","NA","NA","NA","100823.721918","NA","NA","100545.380541","NA","NA","NA","NA","NA","99687.6493296","NA","Tutorial: Gaze cuing","0","0","0","Human","yes","1024"
"undefined","undefined","undefined","undefined","white","no","psycho","psycho","psycho","0","0","uniform","undefined","undefined","NA","NA","m","0","0","54","54","1","1","NA","NA","0","0","NA","54","NA","NA","NA","NA","NA","NA","NA","54","NA","NA","54","NA","0","NA","1","NA","54","NA","NA","NA","02/13/18 14:51:39","The main experiment item","yes","","Python Experiment.osexp","C:\Users\EfKAy\Desktop","no","mono","no","18","no","black","no","Ok","NA","yes","Male","768","psycho","22","22","1","C:/Users/EfKAy/Desktop/subject-1.csv","psycho","Jazzy James","3.1.9","0","m","space","NA","NA","NA","NA","NA","239.891782081","1697.32858182","NA","NA","NA","NA","NA","NA","NA","links","links","2","legacy","1024","2","48000","-16","experiment","1","odd","NA","6422.94246599","102054.513417","101976.549704","67040.9040539","67040.549384","NA","NA","6341.47516978","16610.7547589","NA","101232.592564","NA","NA","NA","NA","NA","NA","NA","102295.170485","NA","NA","102054.364055","NA","NA","NA","NA","NA","101220.441916","NA","Tutorial: Gaze cuing","0","0","0","Greeble","yes","1024"
"undefined","undefined","undefined","undefined","white","no","psycho","psycho","psycho","0","1","uniform","undefined","undefined","NA","NA","m","0","0","55","55","1","1","NA","NA","0","0","NA","55","NA","NA","NA","NA","NA","NA","NA","55","NA","NA","55","NA","0","NA","1","NA","55","NA","NA","NA","02/13/18 14:51:39","The main experiment item","yes","","Python Experiment.osexp","C:\Users\EfKAy\Desktop","no","mono","no","18","no","black","no","Ok","NA","yes","Male","768","psycho","23","23","1","C:/Users/EfKAy/Desktop/subject-1.csv","psycho","Jazzy James","3.1.9","0","m","space","NA","NA","NA","NA","NA","256.776836726","1697.32858182","NA","NA","NA","NA","NA","NA","NA","rechts","links","2","legacy","1024","2","48000","-16","experiment","1","odd","NA","6422.94246599","103547.083059","103468.659969","67040.9040539","67040.549384","NA","NA","6341.47516978","16610.7547589","NA","102725.107286","NA","NA","NA","NA","NA","NA","NA","103804.647252","NA","NA","103546.93575","NA","NA","NA","NA","NA","102708.274072","NA","Tutorial: Gaze cuing","0","0","0","Greeble","yes","1024"
"undefined","undefined","undefined","undefined","white","no","psycho","psycho","psycho","0","0","uniform","undefined","undefined","NA","NA","y","0","0","56","56","1","1","NA","NA","0","0","NA","56","NA","NA","NA","NA","NA","NA","NA","56","NA","NA","56","NA","0","NA","1","NA","56","NA","NA","NA","02/13/18 14:51:39","The main experiment item","yes","","Python Experiment.osexp","C:\Users\EfKAy\Desktop","no","mono","no","18","no","black","no","Ok","NA","yes","Male","768","psycho","24","24","1","C:/Users/EfKAy/Desktop/subject-1.csv","psycho","Jazzy James","3.1.9","0","y","space","NA","NA","NA","NA","NA","243.171579605","1697.32858182","NA","NA","NA","NA","NA","NA","NA","links","links","2","legacy","1024","2","48000","-16","experiment","1","odd","NA","6422.94246599","105056.359137","104961.739288","67040.9040539","67040.549384","NA","NA","6341.47516978","16610.7547589","NA","104217.614309","NA","NA","NA","NA","NA","NA","NA","105300.29549","NA","NA","105056.211829","NA","NA","NA","NA","NA","104199.115533","NA","Tutorial: Gaze cuing","0","0","0","Human","yes","1024"
"undefined","undefined","undefined","undefined","white","no","psycho","psycho","psycho","0","1","uniform","undefined","undefined","NA","NA","m","0","0","57","57","1","1","NA","NA","0","0","NA","57","NA","NA","NA","NA","NA","NA","NA","57","NA","NA","57","NA","0","NA","1","NA","57","NA","NA","NA","02/13/18 14:51:39","The main experiment item","yes","","Python Experiment.osexp","C:\Users\EfKAy\Desktop","no","mono","no","18","no","black","no","Ok","NA","yes","Male","768","psycho","25","25","1","C:/Users/EfKAy/Desktop/subject-1.csv","psycho","Jazzy James","3.1.9","0","y","space","NA","NA","NA","NA","NA","299.484522589","1697.32858182","NA","NA","NA","NA","NA","NA","NA","rechts","links","2","legacy","1024","2","48000","-16","experiment","1","odd","NA","6422.94246599","106515.318297","106437.806775","67040.9040539","67040.549384","NA","NA","6341.47516978","16610.7547589","NA","105693.550912","NA","NA","NA","NA","NA","NA","NA","106815.571185","NA","NA","106515.169962","NA","NA","NA","NA","NA","105679.096706","NA","Tutorial: Gaze cuing","0","0","0","Greeble","yes","1024"
"undefined","undefined","undefined","undefined","white","no","psycho","psycho","psycho","0","1","uniform","undefined","undefined","NA","NA","y","0","0","58","58","1","1","NA","NA","0","0","NA","58","NA","NA","NA","NA","NA","NA","NA","58","NA","NA","58","NA","0","NA","1","NA","58","NA","NA","NA","02/13/18 14:51:39","The main experiment item","yes","","Python Experiment.osexp","C:\Users\EfKAy\Desktop","no","mono","no","18","no","black","no","Ok","NA","yes","Male","768","psycho","26","26","1","C:/Users/EfKAy/Desktop/subject-1.csv","psycho","Jazzy James","3.1.9","0","y","space","NA","NA","NA","NA","NA","308.948714539","1697.32858182","NA","NA","NA","NA","NA","NA","NA","rechts","links","2","legacy","1024","2","48000","-16","experiment","1","odd","NA","6422.94246599","108058.237707","107962.943421","67040.9040539","67040.549384","NA","NA","6341.47516978","16610.7547589","NA","107219.467215","NA","NA","NA","NA","NA","NA","NA","108368.003548","NA","NA","108058.081673","NA","NA","NA","NA","NA","107196.014353","NA","Tutorial: Gaze cuing","0","0","0","Human","yes","1024"
"undefined","undefined","undefined","undefined","white","no","psycho","psycho","psycho","0","0","uniform","undefined","undefined","NA","NA","m","0","0","59","59","1","1","NA","NA","0","0","NA","59","NA","NA","NA","NA","NA","NA","NA","59","NA","NA","59","NA","0","NA","1","NA","59","NA","NA","NA","02/13/18 14:51:39","The main experiment item","yes","","Python Experiment.osexp","C:\Users\EfKAy\Desktop","no","mono","no","18","no","black","no","Ok","NA","yes","Male","768","psycho","27","27","1","C:/Users/EfKAy/Desktop/subject-1.csv","psycho","Jazzy James","3.1.9","0","m","space","NA","NA","NA","NA","NA","342.096226897","1697.32858182","NA","NA","NA","NA","NA","NA","NA","links","rechts","2","legacy","1024","2","48000","-16","experiment","1","odd","NA","6422.94246599","109617.788102","109522.981936","67040.9040539","67040.549384","NA","NA","6341.47516978","16610.7547589","NA","108779.094088","NA","NA","NA","NA","NA","NA","NA","109960.649615","NA","NA","109617.640794","NA","NA","NA","NA","NA","108754.7661","NA","Tutorial: Gaze cuing","0","0","0","Greeble","yes","1024"
"undefined","undefined","undefined","undefined","white","no","psycho","psycho","psycho","0","0","uniform","undefined","undefined","NA","NA","m","0","0","60","60","1","1","NA","NA","0","0","NA","60","NA","NA","NA","NA","NA","NA","NA","60","NA","NA","60","NA","0","NA","1","NA","60","NA","NA","NA","02/13/18 14:51:39","The main experiment item","yes","","Python Experiment.osexp","C:\Users\EfKAy\Desktop","no","mono","no","18","no","black","no","Ok","NA","yes","Male","768","psycho","28","28","1","C:/Users/EfKAy/Desktop/subject-1.csv","psycho","Jazzy James","3.1.9","0","m","space","NA","NA","NA","NA","NA","310.073803143","1697.32858182","NA","NA","NA","NA","NA","NA","NA","rechts","rechts","2","legacy","1024","2","48000","-16","experiment","1","odd","NA","6422.94246599","111177.45963","111099.111478","67040.9040539","67040.549384","NA","NA","6341.47516978","16610.7547589","NA","110355.493096","NA","NA","NA","NA","NA","NA","NA","111488.319763","NA","NA","111177.309242","NA","NA","NA","NA","NA","110339.584795","NA","Tutorial: Gaze cuing","0","0","0","Greeble","yes","1024"
"undefined","undefined","undefined","undefined","white","no","psycho","psycho","psycho","0","0","uniform","undefined","undefined","NA","NA","m","0","0","61","61","1","1","NA","NA","0","0","NA","61","NA","NA","NA","NA","NA","NA","NA","61","NA","NA","61","NA","0","NA","1","NA","61","NA","NA","NA","02/13/18 14:51:39","The main experiment item","yes","","Python Experiment.osexp","C:\Users\EfKAy\Desktop","no","mono","no","18","no","black","no","Ok","NA","yes","Male","768","psycho","29","29","1","C:/Users/EfKAy/Desktop/subject-1.csv","psycho","Jazzy James","3.1.9","0","m","space","NA","NA","NA","NA","NA","349.832237585","1697.32858182","NA","NA","NA","NA","NA","NA","NA","rechts","rechts","2","legacy","1024","2","48000","-16","experiment","1","odd","NA","6422.94246599","112720.2692","112630.164077","67040.9040539","67040.549384","NA","NA","6341.47516978","16610.7547589","NA","111886.078106","NA","NA","NA","NA","NA","NA","NA","113070.873909","NA","NA","112720.115219","NA","NA","NA","NA","NA","111851.234749","NA","Tutorial: Gaze cuing","0","0","0","Greeble","yes","1024"
"undefined","undefined","undefined","undefined","white","no","psycho","psycho","psycho","0","0","uniform","undefined","undefined","NA","NA","y","0","0","62","62","1","1","NA","NA","0","0","NA","62","NA","NA","NA","NA","NA","NA","NA","62","NA","NA","62","NA","0","NA","1","NA","62","NA","NA","NA","02/13/18 14:51:39","The main experiment item","yes","","Python Experiment.osexp","C:\Users\EfKAy\Desktop","no","mono","no","18","no","black","no","Ok","NA","yes","Male","768","psycho","30","30","1","C:/Users/EfKAy/Desktop/subject-1.csv","psycho","Jazzy James","3.1.9","0","y","space","NA","NA","NA","NA","NA","305.002178831","1697.32858182","NA","NA","NA","NA","NA","NA","NA","rechts","rechts","2","legacy","1024","2","48000","-16","experiment","1","odd","NA","6422.94246599","114296.65743","114202.265473","67040.9040539","67040.549384","NA","NA","6341.47516978","16610.7547589","NA","113457.971627","NA","NA","NA","NA","NA","NA","NA","114602.427974","NA","NA","114296.512687","NA","NA","NA","NA","NA","113445.769651","NA","Tutorial: Gaze cuing","0","0","0","Human","yes","1024"
"undefined","undefined","undefined","undefined","white","no","psycho","psycho","psycho","0","0","uniform","undefined","undefined","NA","NA","y","0","0","63","63","1","1","NA","NA","0","0","NA","63","NA","NA","NA","NA","NA","NA","NA","63","NA","NA","63","NA","0","NA","1","NA","63","NA","NA","NA","02/13/18 14:51:39","The main experiment item","yes","","Python Experiment.osexp","C:\Users\EfKAy\Desktop","no","mono","no","18","no","black","no","Ok","NA","yes","Male","768","psycho","31","31","1","C:/Users/EfKAy/Desktop/subject-1.csv","psycho","Jazzy James","3.1.9","0","y","space","NA","NA","NA","NA","NA","387.29173414","1697.32858182","NA","NA","NA","NA","NA","NA","NA","rechts","rechts","2","legacy","1024","2","48000","-16","experiment","1","odd","NA","6422.94246599","115856.350514","115761.352899","67040.9040539","67040.549384","NA","NA","6341.47516978","16610.7547589","NA","115017.607226","NA","NA","NA","NA","NA","NA","NA","116244.440384","NA","NA","115856.070782","NA","NA","NA","NA","NA","115003.606751","NA","Tutorial: Gaze cuing","0","0","0","Human","yes","1024"
