"acc","accuracy","average_response_time","avg_rt","background","bidi","canvas_backend","clock_backend","color_backend","compensation","congruency","coordinates","correct","correct_Introduction","correct_keyboard_response","correct_new_mouse_response","correct_response","count_Gender","count_Introduction","count_Response","count_Target_1","count_block_loop","count_block_sequence","count_end_of_experiment","count_end_of_practice","count_experiment","count_experimental_loop","count_feedback","count_fixation_dot","count_gaze_cue","count_gaze_cue_1","count_gaze_neutral","count_getting_started","count_incorrect_sound","count_instructions","count_keyboard_response","count_logger","count_neutral_gaze","count_new_mouse_response","count_new_sketchpad","count_new_sketchpad_1","count_new_sketchpad_3","count_practice_loop","count_reset_feedback","count_target","count_trial_sequence","count_welcome","cursor_x","cursor_y","datetime","description","disable_garbage_collection","empty_column","experiment_file","experiment_path","font_bold","font_family","font_italic","font_size","font_underline","foreground","form_clicks","form_response","form_var","fullscreen","gender_subject","height","keyboard_backend","live_row","live_row_block_loop","live_row_experimental_loop","logfile","mouse_backend","opensesame_codename","opensesame_version","repeat_cycle","response","response_Introduction","response_feedback","response_keyboard_response","response_new_mouse_response","response_new_sketchpad_1","response_new_sketchpad_3","response_time","response_time_Introduction","response_time_feedback","response_time_keyboard_response","response_time_new_mouse_response","response_time_new_sketchpad_1","response_time_new_sketchpad_3","response_time_welcome","response_welcome","richtung_bild_links","richtung_bild_rechts","round_decimals","sampler_backend","sound_buf_size","sound_channels","sound_freq","sound_sample_size","start","subject_nr","subject_parity","time_Gender","time_Introduction","time_Response","time_Target_1","time_block_loop","time_block_sequence","time_end_of_experiment","time_end_of_practice","time_experiment","time_experimental_loop","time_feedback","time_fixation_dot","time_gaze_cue","time_gaze_cue_1","time_gaze_neutral","time_getting_started","time_incorrect_sound","time_instructions","time_keyboard_response","time_logger","time_neutral_gaze","time_new_mouse_response","time_new_sketchpad","time_new_sketchpad_1","time_new_sketchpad_3","time_practice_loop","time_reset_feedback","time_target","time_trial_sequence","time_welcome","title","total_correct","total_response_time","total_responses","type","uniform_coordinates","width"
"undefined","undefined","undefined","undefined","white","no","psycho","psycho","psycho","0","1","uniform","undefined","undefined","NA","NA","y","0","0","0","0","0","0","NA","NA","0","0","NA","0","NA","NA","NA","NA","NA","NA","NA","0","NA","NA","0","NA","0","NA","0","NA","0","NA","NA","NA","02/20/18 13:55:28","The main experiment item","yes","","Python Experiment.osexp","C:\Users\EfKAy\Desktop","no","mono","no","18","no","black","no","Ok","NA","yes","Male","768","psycho","0","0","0","C:/Users/EfKAy/Desktop/Python Experiment/Data/subject-4.csv","psycho","Jazzy James","3.1.9","0","None","y","NA","NA","NA","NA","NA","3000.06005356","64602.5989331","NA","NA","NA","NA","NA","NA","NA","rechts","links","2","legacy","1024","2","48000","-16","experiment","4","even","NA","11188.9587689","102694.701069","102599.686592","101607.475076","101607.262066","NA","NA","11108.0188948","101605.242829","NA","101856.072159","NA","NA","NA","NA","NA","NA","NA","105695.276968","NA","NA","102694.551192","NA","NA","NA","NA","NA","101843.714472","NA","Tutorial: Gaze cuing","0","0","0","Human","yes","1024"
"undefined","undefined","undefined","undefined","white","no","psycho","psycho","psycho","0","0","uniform","undefined","undefined","NA","NA","m","0","0","1","1","0","0","NA","NA","0","0","NA","1","NA","NA","NA","NA","NA","NA","NA","1","NA","NA","1","NA","0","NA","0","NA","1","NA","NA","NA","02/20/18 13:55:28","The main experiment item","yes","","Python Experiment.osexp","C:\Users\EfKAy\Desktop","no","mono","no","18","no","black","no","Ok","NA","yes","Male","768","psycho","1","1","0","C:/Users/EfKAy/Desktop/Python Experiment/Data/subject-4.csv","psycho","Jazzy James","3.1.9","0","m","y","NA","NA","NA","NA","NA","891.248143858","64602.5989331","NA","NA","NA","NA","NA","NA","NA","links","rechts","2","legacy","1024","2","48000","-16","experiment","4","even","NA","11188.9587689","107356.848492","107278.897951","101607.475076","101607.262066","NA","NA","11108.0188948","101605.242829","NA","106535.133126","NA","NA","NA","NA","NA","NA","NA","108248.843456","NA","NA","107356.659606","NA","NA","NA","NA","NA","106512.248616","NA","Tutorial: Gaze cuing","0","0","0","Greeble","yes","1024"
"undefined","undefined","undefined","undefined","white","no","psycho","psycho","psycho","0","0","uniform","undefined","undefined","NA","NA","m","0","0","2","2","0","0","NA","NA","0","0","NA","2","NA","NA","NA","NA","NA","NA","NA","2","NA","NA","2","NA","0","NA","0","NA","2","NA","NA","NA","02/20/18 13:55:28","The main experiment item","yes","","Python Experiment.osexp","C:\Users\EfKAy\Desktop","no","mono","no","18","no","black","no","Ok","NA","yes","Male","768","psycho","2","2","0","C:/Users/EfKAy/Desktop/Python Experiment/Data/subject-4.csv","psycho","Jazzy James","3.1.9","0","m","y","NA","NA","NA","NA","NA","678.678575406","64602.5989331","NA","NA","NA","NA","NA","NA","NA","links","links","2","legacy","1024","2","48000","-16","experiment","4","even","NA","11188.9587689","109486.537995","109408.023874","101607.475076","101607.262066","NA","NA","11108.0188948","101605.242829","NA","108664.672238","NA","NA","NA","NA","NA","NA","NA","110166.100948","NA","NA","109486.403002","NA","NA","NA","NA","NA","108649.605469","NA","Tutorial: Gaze cuing","0","0","0","Greeble","yes","1024"
"undefined","undefined","undefined","undefined","white","no","psycho","psycho","psycho","0","0","uniform","undefined","undefined","NA","NA","m","0","0","3","3","0","0","NA","NA","0","0","NA","3","NA","NA","NA","NA","NA","NA","NA","3","NA","NA","3","NA","0","NA","0","NA","3","NA","NA","NA","02/20/18 13:55:28","The main experiment item","yes","","Python Experiment.osexp","C:\Users\EfKAy\Desktop","no","mono","no","18","no","black","no","Ok","NA","yes","Male","768","psycho","3","3","0","C:/Users/EfKAy/Desktop/Python Experiment/Data/subject-4.csv","psycho","Jazzy James","3.1.9","0","m","y","NA","NA","NA","NA","NA","426.181091753","64602.5989331","NA","NA","NA","NA","NA","NA","NA","links","rechts","2","legacy","1024","2","48000","-16","experiment","4","even","NA","11188.9587689","111364.869491","111287.158137","101607.475076","101607.262066","NA","NA","11108.0188948","101605.242829","NA","110542.967292","NA","NA","NA","NA","NA","NA","NA","111791.79535","NA","NA","111364.733986","NA","NA","NA","NA","NA","110532.883428","NA","Tutorial: Gaze cuing","0","0","0","Greeble","yes","1024"
"undefined","undefined","undefined","undefined","white","no","psycho","psycho","psycho","0","0","uniform","undefined","undefined","NA","NA","y","0","0","4","4","0","0","NA","NA","0","0","NA","4","NA","NA","NA","NA","NA","NA","NA","4","NA","NA","4","NA","0","NA","0","NA","4","NA","NA","NA","02/20/18 13:55:28","The main experiment item","yes","","Python Experiment.osexp","C:\Users\EfKAy\Desktop","no","mono","no","18","no","black","no","Ok","NA","yes","Male","768","psycho","4","4","0","C:/Users/EfKAy/Desktop/Python Experiment/Data/subject-4.csv","psycho","Jazzy James","3.1.9","0","y","y","NA","NA","NA","NA","NA","426.591201076","64602.5989331","NA","NA","NA","NA","NA","NA","NA","links","links","2","legacy","1024","2","48000","-16","experiment","4","even","NA","11188.9587689","113008.273019","112913.216966","101607.475076","101607.262066","NA","NA","11108.0188948","101605.242829","NA","112169.65694","NA","NA","NA","NA","NA","NA","NA","113435.599748","NA","NA","113008.136487","NA","NA","NA","NA","NA","112155.37138","NA","Tutorial: Gaze cuing","0","0","0","Human","yes","1024"
"undefined","undefined","undefined","undefined","white","no","psycho","psycho","psycho","0","0","uniform","undefined","undefined","NA","NA","y","0","0","5","5","0","0","NA","NA","0","0","NA","5","NA","NA","NA","NA","NA","NA","NA","5","NA","NA","5","NA","0","NA","0","NA","5","NA","NA","NA","02/20/18 13:55:28","The main experiment item","yes","","Python Experiment.osexp","C:\Users\EfKAy\Desktop","no","mono","no","18","no","black","no","Ok","NA","yes","Male","768","psycho","5","5","0","C:/Users/EfKAy/Desktop/Python Experiment/Data/subject-4.csv","psycho","Jazzy James","3.1.9","0","y","y","NA","NA","NA","NA","NA","577.444192539","64602.5989331","NA","NA","NA","NA","NA","NA","NA","rechts","rechts","2","legacy","1024","2","48000","-16","experiment","4","even","NA","11188.9587689","114634.972932","114540.343414","101607.475076","101607.262066","NA","NA","11108.0188948","101605.242829","NA","113796.546767","NA","NA","NA","NA","NA","NA","NA","115213.162918","NA","NA","114634.836914","NA","NA","NA","NA","NA","113784.749066","NA","Tutorial: Gaze cuing","0","0","0","Human","yes","1024"
"undefined","undefined","undefined","undefined","white","no","psycho","psycho","psycho","0","0","uniform","undefined","undefined","NA","NA","y","0","0","6","6","0","0","NA","NA","0","0","NA","6","NA","NA","NA","NA","NA","NA","NA","6","NA","NA","6","NA","0","NA","0","NA","6","NA","NA","NA","02/20/18 13:55:28","The main experiment item","yes","","Python Experiment.osexp","C:\Users\EfKAy\Desktop","no","mono","no","18","no","black","no","Ok","NA","yes","Male","768","psycho","6","6","0","C:/Users/EfKAy/Desktop/Python Experiment/Data/subject-4.csv","psycho","Jazzy James","3.1.9","0","y","y","NA","NA","NA","NA","NA","627.542716299","64602.5989331","NA","NA","NA","NA","NA","NA","NA","links","rechts","2","legacy","1024","2","48000","-16","experiment","4","even","NA","11188.9587689","116412.683414","116317.409731","101607.475076","101607.262066","NA","NA","11108.0188948","101605.242829","NA","115573.906166","NA","NA","NA","NA","NA","NA","NA","117040.961144","NA","NA","116412.547908","NA","NA","NA","NA","NA","115560.824756","NA","Tutorial: Gaze cuing","0","0","0","Human","yes","1024"
"undefined","undefined","undefined","undefined","white","no","psycho","psycho","psycho","0","0","uniform","undefined","undefined","NA","NA","y","0","0","7","7","0","0","NA","NA","0","0","NA","7","NA","NA","NA","NA","NA","NA","NA","7","NA","NA","7","NA","0","NA","0","NA","7","NA","NA","NA","02/20/18 13:55:28","The main experiment item","yes","","Python Experiment.osexp","C:\Users\EfKAy\Desktop","no","mono","no","18","no","black","no","Ok","NA","yes","Male","768","psycho","7","7","0","C:/Users/EfKAy/Desktop/Python Experiment/Data/subject-4.csv","psycho","Jazzy James","3.1.9","0","y","y","NA","NA","NA","NA","NA","373.228227635","64602.5989331","NA","NA","NA","NA","NA","NA","NA","links","rechts","2","legacy","1024","2","48000","-16","experiment","4","even","NA","11188.9587689","118257.379786","118163.529938","101607.475076","101607.262066","NA","NA","11108.0188948","101605.242829","NA","117419.319588","NA","NA","NA","NA","NA","NA","NA","118631.4231","NA","NA","118257.243768","NA","NA","NA","NA","NA","117411.794929","NA","Tutorial: Gaze cuing","0","0","0","Human","yes","1024"
"undefined","undefined","undefined","undefined","white","no","psycho","psycho","psycho","0","0","uniform","undefined","undefined","NA","NA","m","0","0","8","8","0","0","NA","NA","0","0","NA","8","NA","NA","NA","NA","NA","NA","NA","8","NA","NA","8","NA","0","NA","0","NA","8","NA","NA","NA","02/20/18 13:55:28","The main experiment item","yes","","Python Experiment.osexp","C:\Users\EfKAy\Desktop","no","mono","no","18","no","black","no","Ok","NA","yes","Male","768","psycho","8","8","0","C:/Users/EfKAy/Desktop/Python Experiment/Data/subject-4.csv","psycho","Jazzy James","3.1.9","0","m","y","NA","NA","NA","NA","NA","464.392091203","64602.5989331","NA","NA","NA","NA","NA","NA","NA","links","links","2","legacy","1024","2","48000","-16","experiment","4","even","NA","11188.9587689","119816.967029","119738.618696","101607.475076","101607.262066","NA","NA","11108.0188948","101605.242829","NA","118995.103839","NA","NA","NA","NA","NA","NA","NA","120282.088488","NA","NA","119816.832036","NA","NA","NA","NA","NA","118984.049365","NA","Tutorial: Gaze cuing","0","0","0","Greeble","yes","1024"
"undefined","undefined","undefined","undefined","white","no","psycho","psycho","psycho","0","0","uniform","undefined","undefined","NA","NA","y","0","0","9","9","0","0","NA","NA","0","0","NA","9","NA","NA","NA","NA","NA","NA","NA","9","NA","NA","9","NA","0","NA","0","NA","9","NA","NA","NA","02/20/18 13:55:28","The main experiment item","yes","","Python Experiment.osexp","C:\Users\EfKAy\Desktop","no","mono","no","18","no","black","no","Ok","NA","yes","Male","768","psycho","9","9","0","C:/Users/EfKAy/Desktop/Python Experiment/Data/subject-4.csv","psycho","Jazzy James","3.1.9","0","y","y","NA","NA","NA","NA","NA","423.597249034","64602.5989331","NA","NA","NA","NA","NA","NA","NA","links","links","2","legacy","1024","2","48000","-16","experiment","4","even","NA","11188.9587689","121477.337482","121382.686406","101607.475076","101607.262066","NA","NA","11108.0188948","101605.242829","NA","120638.487348","NA","NA","NA","NA","NA","NA","NA","121901.689763","NA","NA","121477.203003","NA","NA","NA","NA","NA","120629.972062","NA","Tutorial: Gaze cuing","0","0","0","Human","yes","1024"
"undefined","undefined","undefined","undefined","white","no","psycho","psycho","psycho","0","0","uniform","undefined","undefined","NA","NA","m","0","0","10","10","0","0","NA","NA","0","0","NA","10","NA","NA","NA","NA","NA","NA","NA","10","NA","NA","10","NA","0","NA","0","NA","10","NA","NA","NA","02/20/18 13:55:28","The main experiment item","yes","","Python Experiment.osexp","C:\Users\EfKAy\Desktop","no","mono","no","18","no","black","no","Ok","NA","yes","Male","768","psycho","10","10","0","C:/Users/EfKAy/Desktop/Python Experiment/Data/subject-4.csv","psycho","Jazzy James","3.1.9","0","m","y","NA","NA","NA","NA","NA","455.702290401","64602.5989331","NA","NA","NA","NA","NA","NA","NA","links","rechts","2","legacy","1024","2","48000","-16","experiment","4","even","NA","11188.9587689","123087.142328","123008.816581","101607.475076","101607.262066","NA","NA","11108.0188948","101605.242829","NA","122265.174943","NA","NA","NA","NA","NA","NA","NA","123543.599651","NA","NA","123087.00785","NA","NA","NA","NA","NA","122254.692261","NA","Tutorial: Gaze cuing","0","0","0","Greeble","yes","1024"
"undefined","undefined","undefined","undefined","white","no","psycho","psycho","psycho","0","0","uniform","undefined","undefined","NA","NA","y","0","0","11","11","0","0","NA","NA","0","0","NA","11","NA","NA","NA","NA","NA","NA","NA","11","NA","NA","11","NA","0","NA","0","NA","11","NA","NA","NA","02/20/18 13:55:28","The main experiment item","yes","","Python Experiment.osexp","C:\Users\EfKAy\Desktop","no","mono","no","18","no","black","no","Ok","NA","yes","Male","768","psycho","11","11","0","C:/Users/EfKAy/Desktop/Python Experiment/Data/subject-4.csv","psycho","Jazzy James","3.1.9","0","y","y","NA","NA","NA","NA","NA","435.438578301","64602.5989331","NA","NA","NA","NA","NA","NA","NA","links","links","2","legacy","1024","2","48000","-16","experiment","4","even","NA","11188.9587689","124747.408073","124652.88583","101607.475076","101607.262066","NA","NA","11108.0188948","101605.242829","NA","123908.648277","NA","NA","NA","NA","NA","NA","NA","125183.597578","NA","NA","124747.270515","NA","NA","NA","NA","NA","123899.493959","NA","Tutorial: Gaze cuing","0","0","0","Human","yes","1024"
"undefined","undefined","undefined","undefined","white","no","psycho","psycho","psycho","0","0","uniform","undefined","undefined","NA","NA","y","0","0","12","12","0","0","NA","NA","0","0","NA","12","NA","NA","NA","NA","NA","NA","NA","12","NA","NA","12","NA","0","NA","0","NA","12","NA","NA","NA","02/20/18 13:55:28","The main experiment item","yes","","Python Experiment.osexp","C:\Users\EfKAy\Desktop","no","mono","no","18","no","black","no","Ok","NA","yes","Male","768","psycho","12","12","0","C:/Users/EfKAy/Desktop/Python Experiment/Data/subject-4.csv","psycho","Jazzy James","3.1.9","0","y","y","NA","NA","NA","NA","NA","475.599008552","64602.5989331","NA","NA","NA","NA","NA","NA","NA","links","links","2","legacy","1024","2","48000","-16","experiment","4","even","NA","11188.9587689","126390.779264","126295.978824","101607.475076","101607.262066","NA","NA","11108.0188948","101605.242829","NA","125552.223239","NA","NA","NA","NA","NA","NA","NA","126867.145624","NA","NA","126390.644785","NA","NA","NA","NA","NA","125534.143013","NA","Tutorial: Gaze cuing","0","0","0","Human","yes","1024"
"undefined","undefined","undefined","undefined","white","no","psycho","psycho","psycho","0","0","uniform","undefined","undefined","NA","NA","m","0","0","13","13","0","0","NA","NA","0","0","NA","13","NA","NA","NA","NA","NA","NA","NA","13","NA","NA","13","NA","0","NA","0","NA","13","NA","NA","NA","02/20/18 13:55:28","The main experiment item","yes","","Python Experiment.osexp","C:\Users\EfKAy\Desktop","no","mono","no","18","no","black","no","Ok","NA","yes","Male","768","psycho","13","13","0","C:/Users/EfKAy/Desktop/Python Experiment/Data/subject-4.csv","psycho","Jazzy James","3.1.9","0","m","y","NA","NA","NA","NA","NA","882.911991771","64602.5989331","NA","NA","NA","NA","NA","NA","NA","rechts","rechts","2","legacy","1024","2","48000","-16","experiment","4","even","NA","11188.9587689","128067.77326","127990.061906","101607.475076","101607.262066","NA","NA","11108.0188948","101605.242829","NA","127246.033771","NA","NA","NA","NA","NA","NA","NA","128951.435152","NA","NA","128067.642888","NA","NA","NA","NA","NA","127224.402685","NA","Tutorial: Gaze cuing","0","0","0","Greeble","yes","1024"
"undefined","undefined","undefined","undefined","white","no","psycho","psycho","psycho","0","0","uniform","undefined","undefined","NA","NA","m","0","0","14","14","0","0","NA","NA","0","0","NA","14","NA","NA","NA","NA","NA","NA","NA","14","NA","NA","14","NA","0","NA","0","NA","14","NA","NA","NA","02/20/18 13:55:28","The main experiment item","yes","","Python Experiment.osexp","C:\Users\EfKAy\Desktop","no","mono","no","18","no","black","no","Ok","NA","yes","Male","768","psycho","14","14","0","C:/Users/EfKAy/Desktop/Python Experiment/Data/subject-4.csv","psycho","Jazzy James","3.1.9","0","m","y","NA","NA","NA","NA","NA","609.579517323","64602.5989331","NA","NA","NA","NA","NA","NA","NA","links","links","2","legacy","1024","2","48000","-16","experiment","4","even","NA","11188.9587689","130147.368859","130069.213519","101607.475076","101607.262066","NA","NA","11108.0188948","101605.242829","NA","129325.443049","NA","NA","NA","NA","NA","NA","NA","130757.768081","NA","NA","130147.231813","NA","NA","NA","NA","NA","129302.81723","NA","Tutorial: Gaze cuing","0","0","0","Greeble","yes","1024"
"undefined","undefined","undefined","undefined","white","no","psycho","psycho","psycho","0","0","uniform","undefined","undefined","NA","NA","m","0","0","15","15","0","0","NA","NA","0","0","NA","15","NA","NA","NA","NA","NA","NA","NA","15","NA","NA","15","NA","0","NA","0","NA","15","NA","NA","NA","02/20/18 13:55:28","The main experiment item","yes","","Python Experiment.osexp","C:\Users\EfKAy\Desktop","no","mono","no","18","no","black","no","Ok","NA","yes","Male","768","psycho","15","15","0","C:/Users/EfKAy/Desktop/Python Experiment/Data/subject-4.csv","psycho","Jazzy James","3.1.9","0","m","y","NA","NA","NA","NA","NA","597.571372624","64602.5989331","NA","NA","NA","NA","NA","NA","NA","links","links","2","legacy","1024","2","48000","-16","experiment","4","even","NA","11188.9587689","131924.918684","131847.328977","101607.475076","101607.262066","NA","NA","11108.0188948","101605.242829","NA","131103.120167","NA","NA","NA","NA","NA","NA","NA","132523.267673","NA","NA","131924.782665","NA","NA","NA","NA","NA","131084.816151","NA","Tutorial: Gaze cuing","0","0","0","Greeble","yes","1024"
"undefined","undefined","undefined","undefined","white","no","psycho","psycho","psycho","0","1","uniform","undefined","undefined","NA","NA","y","0","0","16","16","0","0","NA","NA","0","0","NA","16","NA","NA","NA","NA","NA","NA","NA","16","NA","NA","16","NA","0","NA","0","NA","16","NA","NA","NA","02/20/18 13:55:28","The main experiment item","yes","","Python Experiment.osexp","C:\Users\EfKAy\Desktop","no","mono","no","18","no","black","no","Ok","NA","yes","Male","768","psycho","16","16","0","C:/Users/EfKAy/Desktop/Python Experiment/Data/subject-4.csv","psycho","Jazzy James","3.1.9","0","y","y","NA","NA","NA","NA","NA","487.179079189","64602.5989331","NA","NA","NA","NA","NA","NA","NA","rechts","links","2","legacy","1024","2","48000","-16","experiment","4","even","NA","11188.9587689","133719.403098","133624.416852","101607.475076","101607.262066","NA","NA","11108.0188948","101605.242829","NA","132880.692577","NA","NA","NA","NA","NA","NA","NA","134207.358768","NA","NA","133719.244495","NA","NA","NA","NA","NA","132857.447744","NA","Tutorial: Gaze cuing","0","0","0","Human","yes","1024"
"undefined","undefined","undefined","undefined","white","no","psycho","psycho","psycho","0","0","uniform","undefined","undefined","NA","NA","m","0","0","17","17","0","0","NA","NA","0","0","NA","17","NA","NA","NA","NA","NA","NA","NA","17","NA","NA","17","NA","0","NA","0","NA","17","NA","NA","NA","02/20/18 13:55:28","The main experiment item","yes","","Python Experiment.osexp","C:\Users\EfKAy\Desktop","no","mono","no","18","no","black","no","Ok","NA","yes","Male","768","psycho","17","17","0","C:/Users/EfKAy/Desktop/Python Experiment/Data/subject-4.csv","psycho","Jazzy James","3.1.9","0","m","y","NA","NA","NA","NA","NA","678.638026425","64602.5989331","NA","NA","NA","NA","NA","NA","NA","rechts","rechts","2","legacy","1024","2","48000","-16","experiment","4","even","NA","11188.9587689","135379.583126","135301.508884","101607.475076","101607.262066","NA","NA","11108.0188948","101605.242829","NA","134557.65475","NA","NA","NA","NA","NA","NA","NA","136058.972078","NA","NA","135379.440434","NA","NA","NA","NA","NA","134551.603199","NA","Tutorial: Gaze cuing","0","0","0","Greeble","yes","1024"
"undefined","undefined","undefined","undefined","white","no","psycho","psycho","psycho","0","0","uniform","undefined","undefined","NA","NA","y","0","0","18","18","0","0","NA","NA","0","0","NA","18","NA","NA","NA","NA","NA","NA","NA","18","NA","NA","18","NA","0","NA","0","NA","18","NA","NA","NA","02/20/18 13:55:28","The main experiment item","yes","","Python Experiment.osexp","C:\Users\EfKAy\Desktop","no","mono","no","18","no","black","no","Ok","NA","yes","Male","768","psycho","18","18","0","C:/Users/EfKAy/Desktop/Python Experiment/Data/subject-4.csv","psycho","Jazzy James","3.1.9","0","y","y","NA","NA","NA","NA","NA","433.484014719","64602.5989331","NA","NA","NA","NA","NA","NA","NA","rechts","rechts","2","legacy","1024","2","48000","-16","experiment","4","even","NA","11188.9587689","137257.887932","137162.625028","101607.475076","101607.262066","NA","NA","11108.0188948","101605.242829","NA","136419.177923","NA","NA","NA","NA","NA","NA","NA","137692.110554","NA","NA","137257.752426","NA","NA","NA","NA","NA","136408.844606","NA","Tutorial: Gaze cuing","0","0","0","Human","yes","1024"
"undefined","undefined","undefined","undefined","white","no","psycho","psycho","psycho","0","0","uniform","undefined","undefined","NA","NA","y","0","0","19","19","0","0","NA","NA","0","0","NA","19","NA","NA","NA","NA","NA","NA","NA","19","NA","NA","19","NA","0","NA","0","NA","19","NA","NA","NA","02/20/18 13:55:28","The main experiment item","yes","","Python Experiment.osexp","C:\Users\EfKAy\Desktop","no","mono","no","18","no","black","no","Ok","NA","yes","Male","768","psycho","19","19","0","C:/Users/EfKAy/Desktop/Python Experiment/Data/subject-4.csv","psycho","Jazzy James","3.1.9","0","y","y","NA","NA","NA","NA","NA","1835.86644705","64602.5989331","NA","NA","NA","NA","NA","NA","NA","links","rechts","2","legacy","1024","2","48000","-16","experiment","4","even","NA","11188.9587689","138884.581173","138789.700148","101607.475076","101607.262066","NA","NA","11108.0188948","101605.242829","NA","138045.97228","NA","NA","NA","NA","NA","NA","NA","140721.188793","NA","NA","138884.434375","NA","NA","NA","NA","NA","138031.599462","NA","Tutorial: Gaze cuing","0","0","0","Human","yes","1024"
"undefined","undefined","undefined","undefined","white","no","psycho","psycho","psycho","0","0","uniform","undefined","undefined","NA","NA","m","0","0","20","20","0","0","NA","NA","0","0","NA","20","NA","NA","NA","NA","NA","NA","NA","20","NA","NA","20","NA","0","NA","0","NA","20","NA","NA","NA","02/20/18 13:55:28","The main experiment item","yes","","Python Experiment.osexp","C:\Users\EfKAy\Desktop","no","mono","no","18","no","black","no","Ok","NA","yes","Male","768","psycho","20","20","0","C:/Users/EfKAy/Desktop/Python Experiment/Data/subject-4.csv","psycho","Jazzy James","3.1.9","0","m","y","NA","NA","NA","NA","NA","634.448361898","64602.5989331","NA","NA","NA","NA","NA","NA","NA","links","rechts","2","legacy","1024","2","48000","-16","experiment","4","even","NA","11188.9587689","141903.2142","141824.887939","101607.475076","101607.262066","NA","NA","11108.0188948","101605.242829","NA","141081.244248","NA","NA","NA","NA","NA","NA","NA","142538.400656","NA","NA","141903.077668","NA","NA","NA","NA","NA","141063.682946","NA","Tutorial: Gaze cuing","0","0","0","Greeble","yes","1024"
"undefined","undefined","undefined","undefined","white","no","psycho","psycho","psycho","0","1","uniform","undefined","undefined","NA","NA","m","0","0","21","21","0","0","NA","NA","0","0","NA","21","NA","NA","NA","NA","NA","NA","NA","21","NA","NA","21","NA","0","NA","0","NA","21","NA","NA","NA","02/20/18 13:55:28","The main experiment item","yes","","Python Experiment.osexp","C:\Users\EfKAy\Desktop","no","mono","no","18","no","black","no","Ok","NA","yes","Male","768","psycho","21","21","0","C:/Users/EfKAy/Desktop/Python Experiment/Data/subject-4.csv","psycho","Jazzy James","3.1.9","0","m","y","NA","NA","NA","NA","NA","752.842663278","64602.5989331","NA","NA","NA","NA","NA","NA","NA","rechts","links","2","legacy","1024","2","48000","-16","experiment","4","even","NA","11188.9587689","143731.182321","143652.968468","101607.475076","101607.262066","NA","NA","11108.0188948","101605.242829","NA","142909.342742","NA","NA","NA","NA","NA","NA","NA","144484.769751","NA","NA","143731.04117","NA","NA","NA","NA","NA","142890.966867","NA","Tutorial: Gaze cuing","0","0","0","Greeble","yes","1024"
"undefined","undefined","undefined","undefined","white","no","psycho","psycho","psycho","0","0","uniform","undefined","undefined","NA","NA","y","0","0","22","22","0","0","NA","NA","0","0","NA","22","NA","NA","NA","NA","NA","NA","NA","22","NA","NA","22","NA","0","NA","0","NA","22","NA","NA","NA","02/20/18 13:55:28","The main experiment item","yes","","Python Experiment.osexp","C:\Users\EfKAy\Desktop","no","mono","no","18","no","black","no","Ok","NA","yes","Male","768","psycho","22","22","0","C:/Users/EfKAy/Desktop/Python Experiment/Data/subject-4.csv","psycho","Jazzy James","3.1.9","0","y","y","NA","NA","NA","NA","NA","386.71153403","64602.5989331","NA","NA","NA","NA","NA","NA","NA","rechts","rechts","2","legacy","1024","2","48000","-16","experiment","4","even","NA","11188.9587689","145693.164828","145598.095943","101607.475076","101607.262066","NA","NA","11108.0188948","101605.242829","NA","144854.625741","NA","NA","NA","NA","NA","NA","NA","146080.617022","NA","NA","145693.027782","NA","NA","NA","NA","NA","144836.020431","NA","Tutorial: Gaze cuing","0","0","0","Human","yes","1024"
"undefined","undefined","undefined","undefined","white","no","psycho","psycho","psycho","0","1","uniform","undefined","undefined","NA","NA","y","0","0","23","23","0","0","NA","NA","0","0","NA","23","NA","NA","NA","NA","NA","NA","NA","23","NA","NA","23","NA","0","NA","0","NA","23","NA","NA","NA","02/20/18 13:55:28","The main experiment item","yes","","Python Experiment.osexp","C:\Users\EfKAy\Desktop","no","mono","no","18","no","black","no","Ok","NA","yes","Male","768","psycho","23","23","0","C:/Users/EfKAy/Desktop/Python Experiment/Data/subject-4.csv","psycho","Jazzy James","3.1.9","0","y","y","NA","NA","NA","NA","NA","528.811591465","64602.5989331","NA","NA","NA","NA","NA","NA","NA","rechts","links","2","legacy","1024","2","48000","-16","experiment","4","even","NA","11188.9587689","147269.573738","147175.19008","101607.475076","101607.262066","NA","NA","11108.0188948","101605.242829","NA","146430.997182","NA","NA","NA","NA","NA","NA","NA","147799.18707","NA","NA","147269.437206","NA","NA","NA","NA","NA","146420.127488","NA","Tutorial: Gaze cuing","0","0","0","Human","yes","1024"
"undefined","undefined","undefined","undefined","white","no","psycho","psycho","psycho","0","0","uniform","undefined","undefined","NA","NA","y","0","0","24","24","0","0","NA","NA","0","0","NA","24","NA","NA","NA","NA","NA","NA","NA","24","NA","NA","24","NA","0","NA","0","NA","24","NA","NA","NA","02/20/18 13:55:28","The main experiment item","yes","","Python Experiment.osexp","C:\Users\EfKAy\Desktop","no","mono","no","18","no","black","no","Ok","NA","yes","Male","768","psycho","24","24","0","C:/Users/EfKAy/Desktop/Python Experiment/Data/subject-4.csv","psycho","Jazzy James","3.1.9","0","y","y","NA","NA","NA","NA","NA","822.818400615","64602.5989331","NA","NA","NA","NA","NA","NA","NA","rechts","rechts","2","legacy","1024","2","48000","-16","experiment","4","even","NA","11188.9587689","148996.924437","148902.264635","101607.475076","101607.262066","NA","NA","11108.0188948","101605.242829","NA","148158.344801","NA","NA","NA","NA","NA","NA","NA","149820.541498","NA","NA","148996.788418","NA","NA","NA","NA","NA","148137.954309","NA","Tutorial: Gaze cuing","0","0","0","Human","yes","1024"
"undefined","undefined","undefined","undefined","white","no","psycho","psycho","psycho","0","1","uniform","undefined","undefined","NA","NA","m","0","0","25","25","0","0","NA","NA","0","0","NA","25","NA","NA","NA","NA","NA","NA","NA","25","NA","NA","25","NA","0","NA","0","NA","25","NA","NA","NA","02/20/18 13:55:28","The main experiment item","yes","","Python Experiment.osexp","C:\Users\EfKAy\Desktop","no","mono","no","18","no","black","no","Ok","NA","yes","Male","768","psycho","25","25","0","C:/Users/EfKAy/Desktop/Python Experiment/Data/subject-4.csv","psycho","Jazzy James","3.1.9","0","m","y","NA","NA","NA","NA","NA","385.556657963","64602.5989331","NA","NA","NA","NA","NA","NA","NA","rechts","links","2","legacy","1024","2","48000","-16","experiment","4","even","NA","11188.9587689","150992.600581","150914.39494","101607.475076","101607.262066","NA","NA","11108.0188948","101605.242829","NA","150170.708647","NA","NA","NA","NA","NA","NA","NA","151378.890713","NA","NA","150992.463535","NA","NA","NA","NA","NA","150163.911303","NA","Tutorial: Gaze cuing","0","0","0","Greeble","yes","1024"
"undefined","undefined","undefined","undefined","white","no","psycho","psycho","psycho","0","1","uniform","undefined","undefined","NA","NA","m","0","0","26","26","0","0","NA","NA","0","0","NA","26","NA","NA","NA","NA","NA","NA","NA","26","NA","NA","26","NA","0","NA","0","NA","26","NA","NA","NA","02/20/18 13:55:28","The main experiment item","yes","","Python Experiment.osexp","C:\Users\EfKAy\Desktop","no","mono","no","18","no","black","no","Ok","NA","yes","Male","768","psycho","26","26","0","C:/Users/EfKAy/Desktop/Python Experiment/Data/subject-4.csv","psycho","Jazzy James","3.1.9","0","None","y","NA","NA","NA","NA","NA","3000.03079669","64602.5989331","NA","NA","NA","NA","NA","NA","NA","rechts","links","2","legacy","1024","2","48000","-16","experiment","4","even","NA","11188.9587689","152568.996146","152490.49845","101607.475076","101607.262066","NA","NA","11108.0188948","101605.242829","NA","151747.056478","NA","NA","NA","NA","NA","NA","NA","155569.555106","NA","NA","152568.859101","NA","NA","NA","NA","NA","151728.479398","NA","Tutorial: Gaze cuing","0","0","0","Greeble","yes","1024"
"undefined","undefined","undefined","undefined","white","no","psycho","psycho","psycho","0","0","uniform","undefined","undefined","NA","NA","m","0","0","27","27","0","0","NA","NA","0","0","NA","27","NA","NA","NA","NA","NA","NA","NA","27","NA","NA","27","NA","0","NA","0","NA","27","NA","NA","NA","02/20/18 13:55:28","The main experiment item","yes","","Python Experiment.osexp","C:\Users\EfKAy\Desktop","no","mono","no","18","no","black","no","Ok","NA","yes","Male","768","psycho","27","27","0","C:/Users/EfKAy/Desktop/Python Experiment/Data/subject-4.csv","psycho","Jazzy James","3.1.9","0","m","y","NA","NA","NA","NA","NA","424.40001622","64602.5989331","NA","NA","NA","NA","NA","NA","NA","rechts","rechts","2","legacy","1024","2","48000","-16","experiment","4","even","NA","11188.9587689","156744.724141","156666.707387","101607.475076","101607.262066","NA","NA","11108.0188948","101605.242829","NA","155922.863518","NA","NA","NA","NA","NA","NA","NA","157169.867384","NA","NA","156744.572211","NA","NA","NA","NA","NA","155908.864367","NA","Tutorial: Gaze cuing","0","0","0","Greeble","yes","1024"
"undefined","undefined","undefined","undefined","white","no","psycho","psycho","psycho","0","1","uniform","undefined","undefined","NA","NA","m","0","0","28","28","0","0","NA","NA","0","0","NA","28","NA","NA","NA","NA","NA","NA","NA","28","NA","NA","28","NA","0","NA","0","NA","28","NA","NA","NA","02/20/18 13:55:28","The main experiment item","yes","","Python Experiment.osexp","C:\Users\EfKAy\Desktop","no","mono","no","18","no","black","no","Ok","NA","yes","Male","768","psycho","28","28","0","C:/Users/EfKAy/Desktop/Python Experiment/Data/subject-4.csv","psycho","Jazzy James","3.1.9","0","m","y","NA","NA","NA","NA","NA","335.763021484","64602.5989331","NA","NA","NA","NA","NA","NA","NA","rechts","links","2","legacy","1024","2","48000","-16","experiment","4","even","NA","11188.9587689","158371.442533","158293.812277","101607.475076","101607.262066","NA","NA","11108.0188948","101605.242829","NA","157549.602954","NA","NA","NA","NA","NA","NA","NA","158707.95802","NA","NA","158371.308054","NA","NA","NA","NA","NA","157537.98798","NA","Tutorial: Gaze cuing","0","0","0","Greeble","yes","1024"
"undefined","undefined","undefined","undefined","white","no","psycho","psycho","psycho","0","1","uniform","undefined","undefined","NA","NA","y","0","0","29","29","0","0","NA","NA","0","0","NA","29","NA","NA","NA","NA","NA","NA","NA","29","NA","NA","29","NA","0","NA","0","NA","29","NA","NA","NA","02/20/18 13:55:28","The main experiment item","yes","","Python Experiment.osexp","C:\Users\EfKAy\Desktop","no","mono","no","18","no","black","no","Ok","NA","yes","Male","768","psycho","29","29","0","C:/Users/EfKAy/Desktop/Python Experiment/Data/subject-4.csv","psycho","Jazzy James","3.1.9","0","y","y","NA","NA","NA","NA","NA","383.18531244","64602.5989331","NA","NA","NA","NA","NA","NA","NA","rechts","links","2","legacy","1024","2","48000","-16","experiment","4","even","NA","11188.9587689","159914.239417","159819.891688","101607.475076","101607.262066","NA","NA","11108.0188948","101605.242829","NA","159075.635657","NA","NA","NA","NA","NA","NA","NA","160298.164363","NA","NA","159914.101858","NA","NA","NA","NA","NA","159059.659871","NA","Tutorial: Gaze cuing","0","0","0","Human","yes","1024"
"undefined","undefined","undefined","undefined","white","no","psycho","psycho","psycho","0","0","uniform","undefined","undefined","NA","NA","m","0","0","30","30","0","0","NA","NA","0","0","NA","30","NA","NA","NA","NA","NA","NA","NA","30","NA","NA","30","NA","0","NA","0","NA","30","NA","NA","NA","02/20/18 13:55:28","The main experiment item","yes","","Python Experiment.osexp","C:\Users\EfKAy\Desktop","no","mono","no","18","no","black","no","Ok","NA","yes","Male","768","psycho","30","30","0","C:/Users/EfKAy/Desktop/Python Experiment/Data/subject-4.csv","psycho","Jazzy James","3.1.9","0","m","y","NA","NA","NA","NA","NA","347.639766951","64602.5989331","NA","NA","NA","NA","NA","NA","NA","rechts","rechts","2","legacy","1024","2","48000","-16","experiment","4","even","NA","11188.9587689","161524.209025","161433.035923","101607.475076","101607.262066","NA","NA","11108.0188948","101605.242829","NA","160685.856258","NA","NA","NA","NA","NA","NA","NA","161872.5874","NA","NA","161524.074033","NA","NA","NA","NA","NA","160661.446285","NA","Tutorial: Gaze cuing","0","0","0","Greeble","yes","1024"
"undefined","undefined","undefined","undefined","white","no","psycho","psycho","psycho","0","0","uniform","undefined","undefined","NA","NA","y","0","0","31","31","0","0","NA","NA","0","0","NA","31","NA","NA","NA","NA","NA","NA","NA","31","NA","NA","31","NA","0","NA","0","NA","31","NA","NA","NA","02/20/18 13:55:28","The main experiment item","yes","","Python Experiment.osexp","C:\Users\EfKAy\Desktop","no","mono","no","18","no","black","no","Ok","NA","yes","Male","768","psycho","31","31","0","C:/Users/EfKAy/Desktop/Python Experiment/Data/subject-4.csv","psycho","Jazzy James","3.1.9","0","y","y","NA","NA","NA","NA","NA","444.270557179","64602.5989331","NA","NA","NA","NA","NA","NA","NA","links","rechts","2","legacy","1024","2","48000","-16","experiment","4","even","NA","11188.9587689","163083.919454","162989.121581","101607.475076","101607.262066","NA","NA","11108.0188948","101605.242829","NA","162245.193021","NA","NA","NA","NA","NA","NA","NA","163528.937345","NA","NA","163083.783949","NA","NA","NA","NA","NA","162223.921744","NA","Tutorial: Gaze cuing","0","0","0","Human","yes","1024"
"undefined","undefined","undefined","undefined","white","no","psycho","psycho","psycho","0","0","uniform","undefined","undefined","NA","NA","m","0","0","32","32","1","1","NA","NA","0","0","NA","32","NA","NA","NA","NA","NA","NA","NA","32","NA","NA","32","NA","0","NA","1","NA","32","NA","NA","NA","02/20/18 13:55:28","The main experiment item","yes","","Python Experiment.osexp","C:\Users\EfKAy\Desktop","no","mono","no","18","no","black","no","Ok","NA","yes","Male","768","psycho","0","0","1","C:/Users/EfKAy/Desktop/Python Experiment/Data/subject-4.csv","psycho","Jazzy James","3.1.9","0","m","y","NA","NA","NA","NA","NA","391.707271254","64602.5989331","NA","NA","NA","NA","NA","NA","NA","links","links","2","legacy","1024","2","48000","-16","experiment","4","even","NA","11188.9587689","164794.442839","164716.165853","163760.396579","163760.055249","NA","NA","11108.0188948","101605.242829","NA","163972.441064","NA","NA","NA","NA","NA","NA","NA","165186.901036","NA","NA","164794.30682","NA","NA","NA","NA","NA","163961.429192","NA","Tutorial: Gaze cuing","0","0","0","Greeble","yes","1024"
"undefined","undefined","undefined","undefined","white","no","psycho","psycho","psycho","0","0","uniform","undefined","undefined","NA","NA","y","0","0","33","33","1","1","NA","NA","0","0","NA","33","NA","NA","NA","NA","NA","NA","NA","33","NA","NA","33","NA","0","NA","1","NA","33","NA","NA","NA","02/20/18 13:55:28","The main experiment item","yes","","Python Experiment.osexp","C:\Users\EfKAy\Desktop","no","mono","no","18","no","black","no","Ok","NA","yes","Male","768","psycho","1","1","1","C:/Users/EfKAy/Desktop/Python Experiment/Data/subject-4.csv","psycho","Jazzy James","3.1.9","0","y","y","NA","NA","NA","NA","NA","284.058450074","64602.5989331","NA","NA","NA","NA","NA","NA","NA","links","links","2","legacy","1024","2","48000","-16","experiment","4","even","NA","11188.9587689","166404.254358","166309.284536","163760.396579","163760.055249","NA","NA","11108.0188948","101605.242829","NA","165565.626474","NA","NA","NA","NA","NA","NA","NA","166689.190514","NA","NA","166404.11372","NA","NA","NA","NA","NA","165547.771577","NA","Tutorial: Gaze cuing","0","0","0","Human","yes","1024"
"undefined","undefined","undefined","undefined","white","no","psycho","psycho","psycho","0","0","uniform","undefined","undefined","NA","NA","m","0","0","34","34","1","1","NA","NA","0","0","NA","34","NA","NA","NA","NA","NA","NA","NA","34","NA","NA","34","NA","0","NA","1","NA","34","NA","NA","NA","02/20/18 13:55:28","The main experiment item","yes","","Python Experiment.osexp","C:\Users\EfKAy\Desktop","no","mono","no","18","no","black","no","Ok","NA","yes","Male","768","psycho","2","2","1","C:/Users/EfKAy/Desktop/Python Experiment/Data/subject-4.csv","psycho","Jazzy James","3.1.9","0","m","y","NA","NA","NA","NA","NA","614.90631902","64602.5989331","NA","NA","NA","NA","NA","NA","NA","rechts","rechts","2","legacy","1024","2","48000","-16","experiment","4","even","NA","11188.9587689","167880.099227","167802.397625","163760.396579","163760.055249","NA","NA","11108.0188948","101605.242829","NA","167058.247843","NA","NA","NA","NA","NA","NA","NA","168495.747233","NA","NA","167879.968341","NA","NA","NA","NA","NA","167039.326866","NA","Tutorial: Gaze cuing","0","0","0","Greeble","yes","1024"
"undefined","undefined","undefined","undefined","white","no","psycho","psycho","psycho","0","1","uniform","undefined","undefined","NA","NA","y","0","0","35","35","1","1","NA","NA","0","0","NA","35","NA","NA","NA","NA","NA","NA","NA","35","NA","NA","35","NA","0","NA","1","NA","35","NA","NA","NA","02/20/18 13:55:28","The main experiment item","yes","","Python Experiment.osexp","C:\Users\EfKAy\Desktop","no","mono","no","18","no","black","no","Ok","NA","yes","Male","768","psycho","3","3","1","C:/Users/EfKAy/Desktop/Python Experiment/Data/subject-4.csv","psycho","Jazzy James","3.1.9","0","y","y","NA","NA","NA","NA","NA","462.564307349","64602.5989331","NA","NA","NA","NA","NA","NA","NA","rechts","links","2","legacy","1024","2","48000","-16","experiment","4","even","NA","11188.9587689","169707.969825","169613.46606","163760.396579","163760.055249","NA","NA","11108.0188948","101605.242829","NA","168869.350154","NA","NA","NA","NA","NA","NA","NA","170171.271714","NA","NA","169707.83586","NA","NA","NA","NA","NA","168857.575037","NA","Tutorial: Gaze cuing","0","0","0","Human","yes","1024"
"undefined","undefined","undefined","undefined","white","no","psycho","psycho","psycho","0","1","uniform","undefined","undefined","NA","NA","y","0","0","36","36","1","1","NA","NA","0","0","NA","36","NA","NA","NA","NA","NA","NA","NA","36","NA","NA","36","NA","0","NA","1","NA","36","NA","NA","NA","02/20/18 13:55:28","The main experiment item","yes","","Python Experiment.osexp","C:\Users\EfKAy\Desktop","no","mono","no","18","no","black","no","Ok","NA","yes","Male","768","psycho","4","4","1","C:/Users/EfKAy/Desktop/Python Experiment/Data/subject-4.csv","psycho","Jazzy James","3.1.9","0","y","y","NA","NA","NA","NA","NA","508.354886743","64602.5989331","NA","NA","NA","NA","NA","NA","NA","rechts","links","2","legacy","1024","2","48000","-16","experiment","4","even","NA","11188.9587689","171385.109079","171290.574517","163760.396579","163760.055249","NA","NA","11108.0188948","101605.242829","NA","170546.444753","NA","NA","NA","NA","NA","NA","NA","171894.204627","NA","NA","171384.973574","NA","NA","NA","NA","NA","170523.531498","NA","Tutorial: Gaze cuing","0","0","0","Human","yes","1024"
"undefined","undefined","undefined","undefined","white","no","psycho","psycho","psycho","0","1","uniform","undefined","undefined","NA","NA","m","0","0","37","37","1","1","NA","NA","0","0","NA","37","NA","NA","NA","NA","NA","NA","NA","37","NA","NA","37","NA","0","NA","1","NA","37","NA","NA","NA","02/20/18 13:55:28","The main experiment item","yes","","Python Experiment.osexp","C:\Users\EfKAy\Desktop","no","mono","no","18","no","black","no","Ok","NA","yes","Male","768","psycho","5","5","1","C:/Users/EfKAy/Desktop/Python Experiment/Data/subject-4.csv","psycho","Jazzy James","3.1.9","0","m","y","NA","NA","NA","NA","NA","427.332374872","64602.5989331","NA","NA","NA","NA","NA","NA","NA","rechts","links","2","legacy","1024","2","48000","-16","experiment","4","even","NA","11188.9587689","173078.787185","173000.695492","163760.396579","163760.055249","NA","NA","11108.0188948","101605.242829","NA","172256.955819","NA","NA","NA","NA","NA","NA","NA","173506.898716","NA","NA","173078.639874","NA","NA","NA","NA","NA","172249.352115","NA","Tutorial: Gaze cuing","0","0","0","Greeble","yes","1024"
"undefined","undefined","undefined","undefined","white","no","psycho","psycho","psycho","0","0","uniform","undefined","undefined","NA","NA","y","0","0","38","38","1","1","NA","NA","0","0","NA","38","NA","NA","NA","NA","NA","NA","NA","38","NA","NA","38","NA","0","NA","1","NA","38","NA","NA","NA","02/20/18 13:55:28","The main experiment item","yes","","Python Experiment.osexp","C:\Users\EfKAy\Desktop","no","mono","no","18","no","black","no","Ok","NA","yes","Male","768","psycho","6","6","1","C:/Users/EfKAy/Desktop/Python Experiment/Data/subject-4.csv","psycho","Jazzy James","3.1.9","0","y","y","NA","NA","NA","NA","NA","394.854693493","64602.5989331","NA","NA","NA","NA","NA","NA","NA","links","rechts","2","legacy","1024","2","48000","-16","experiment","4","even","NA","11188.9587689","174705.558444","174610.7385","163760.396579","163760.055249","NA","NA","11108.0188948","101605.242829","NA","173866.885392","NA","NA","NA","NA","NA","NA","NA","175101.155851","NA","NA","174705.423452","NA","NA","NA","NA","NA","173855.21755","NA","Tutorial: Gaze cuing","0","0","0","Human","yes","1024"
"undefined","undefined","undefined","undefined","white","no","psycho","psycho","psycho","0","0","uniform","undefined","undefined","NA","NA","m","0","0","39","39","1","1","NA","NA","0","0","NA","39","NA","NA","NA","NA","NA","NA","NA","39","NA","NA","39","NA","0","NA","1","NA","39","NA","NA","NA","02/20/18 13:55:28","The main experiment item","yes","","Python Experiment.osexp","C:\Users\EfKAy\Desktop","no","mono","no","18","no","black","no","Ok","NA","yes","Male","768","psycho","7","7","1","C:/Users/EfKAy/Desktop/Python Experiment/Data/subject-4.csv","psycho","Jazzy James","3.1.9","0","m","y","NA","NA","NA","NA","NA","421.989661549","64602.5989331","NA","NA","NA","NA","NA","NA","NA","rechts","rechts","2","legacy","1024","2","48000","-16","experiment","4","even","NA","11188.9587689","176298.620667","176220.874924","163760.396579","163760.055249","NA","NA","11108.0188948","101605.242829","NA","175476.801106","NA","NA","NA","NA","NA","NA","NA","176721.367414","NA","NA","176298.484135","NA","NA","NA","NA","NA","175454.576671","NA","Tutorial: Gaze cuing","0","0","0","Greeble","yes","1024"
"undefined","undefined","undefined","undefined","white","no","psycho","psycho","psycho","0","0","uniform","undefined","undefined","NA","NA","y","0","0","40","40","1","1","NA","NA","0","0","NA","40","NA","NA","NA","NA","NA","NA","NA","40","NA","NA","40","NA","0","NA","1","NA","40","NA","NA","NA","02/20/18 13:55:28","The main experiment item","yes","","Python Experiment.osexp","C:\Users\EfKAy\Desktop","no","mono","no","18","no","black","no","Ok","NA","yes","Male","768","psycho","8","8","1","C:/Users/EfKAy/Desktop/Python Experiment/Data/subject-4.csv","psycho","Jazzy James","3.1.9","0","y","y","NA","NA","NA","NA","NA","385.844607063","64602.5989331","NA","NA","NA","NA","NA","NA","NA","links","rechts","2","legacy","1024","2","48000","-16","experiment","4","even","NA","11188.9587689","177925.440688","177830.952321","163760.396579","163760.055249","NA","NA","11108.0188948","101605.242829","NA","177086.670626","NA","NA","NA","NA","NA","NA","NA","178312.039301","NA","NA","177925.309802","NA","NA","NA","NA","NA","177074.164088","NA","Tutorial: Gaze cuing","0","0","0","Human","yes","1024"
"undefined","undefined","undefined","undefined","white","no","psycho","psycho","psycho","0","0","uniform","undefined","undefined","NA","NA","m","0","0","41","41","1","1","NA","NA","0","0","NA","41","NA","NA","NA","NA","NA","NA","NA","41","NA","NA","41","NA","0","NA","1","NA","41","NA","NA","NA","02/20/18 13:55:28","The main experiment item","yes","","Python Experiment.osexp","C:\Users\EfKAy\Desktop","no","mono","no","18","no","black","no","Ok","NA","yes","Male","768","psycho","9","9","1","C:/Users/EfKAy/Desktop/Python Experiment/Data/subject-4.csv","psycho","Jazzy James","3.1.9","0","m","y","NA","NA","NA","NA","NA","289.670121201","64602.5989331","NA","NA","NA","NA","NA","NA","NA","links","links","2","legacy","1024","2","48000","-16","experiment","4","even","NA","11188.9587689","179520.135136","179440.081693","163760.396579","163760.055249","NA","NA","11108.0188948","101605.242829","NA","178696.593526","NA","NA","NA","NA","NA","NA","NA","179810.545918","NA","NA","179519.999117","NA","NA","NA","NA","NA","178681.517004","NA","Tutorial: Gaze cuing","0","0","0","Greeble","yes","1024"
"undefined","undefined","undefined","undefined","white","no","psycho","psycho","psycho","0","0","uniform","undefined","undefined","NA","NA","m","0","0","42","42","1","1","NA","NA","0","0","NA","42","NA","NA","NA","NA","NA","NA","NA","42","NA","NA","42","NA","0","NA","1","NA","42","NA","NA","NA","02/20/18 13:55:28","The main experiment item","yes","","Python Experiment.osexp","C:\Users\EfKAy\Desktop","no","mono","no","18","no","black","no","Ok","NA","yes","Male","768","psycho","10","10","1","C:/Users/EfKAy/Desktop/Python Experiment/Data/subject-4.csv","psycho","Jazzy James","3.1.9","0","m","y","NA","NA","NA","NA","NA","284.052804014","64602.5989331","NA","NA","NA","NA","NA","NA","NA","rechts","rechts","2","legacy","1024","2","48000","-16","experiment","4","even","NA","11188.9587689","181011.039075","180933.129596","163760.396579","163760.055249","NA","NA","11108.0188948","101605.242829","NA","180189.247745","NA","NA","NA","NA","NA","NA","NA","181295.82946","NA","NA","181010.899977","NA","NA","NA","NA","NA","180175.084858","NA","Tutorial: Gaze cuing","0","0","0","Greeble","yes","1024"
"undefined","undefined","undefined","undefined","white","no","psycho","psycho","psycho","0","1","uniform","undefined","undefined","NA","NA","y","0","0","43","43","1","1","NA","NA","0","0","NA","43","NA","NA","NA","NA","NA","NA","NA","43","NA","NA","43","NA","0","NA","1","NA","43","NA","NA","NA","02/20/18 13:55:28","The main experiment item","yes","","Python Experiment.osexp","C:\Users\EfKAy\Desktop","no","mono","no","18","no","black","no","Ok","NA","yes","Male","768","psycho","11","11","1","C:/Users/EfKAy/Desktop/Python Experiment/Data/subject-4.csv","psycho","Jazzy James","3.1.9","0","y","y","NA","NA","NA","NA","NA","434.025523274","64602.5989331","NA","NA","NA","NA","NA","NA","NA","rechts","links","2","legacy","1024","2","48000","-16","experiment","4","even","NA","11188.9587689","182503.617328","182409.228538","163760.396579","163760.055249","NA","NA","11108.0188948","101605.242829","NA","181665.078242","NA","NA","NA","NA","NA","NA","NA","182938.389672","NA","NA","182503.48131","NA","NA","NA","NA","NA","181653.648048","NA","Tutorial: Gaze cuing","0","0","0","Human","yes","1024"
"undefined","undefined","undefined","undefined","white","no","psycho","psycho","psycho","0","0","uniform","undefined","undefined","NA","NA","m","0","0","44","44","1","1","NA","NA","0","0","NA","44","NA","NA","NA","NA","NA","NA","NA","44","NA","NA","44","NA","0","NA","1","NA","44","NA","NA","NA","02/20/18 13:55:28","The main experiment item","yes","","Python Experiment.osexp","C:\Users\EfKAy\Desktop","no","mono","no","18","no","black","no","Ok","NA","yes","Male","768","psycho","12","12","1","C:/Users/EfKAy/Desktop/Python Experiment/Data/subject-4.csv","psycho","Jazzy James","3.1.9","0","m","y","NA","NA","NA","NA","NA","431.499680998","64602.5989331","NA","NA","NA","NA","NA","NA","NA","links","links","2","legacy","1024","2","48000","-16","experiment","4","even","NA","11188.9587689","184147.113246","184069.300776","163760.396579","163760.055249","NA","NA","11108.0188948","101605.242829","NA","183325.155613","NA","NA","NA","NA","NA","NA","NA","184579.377712","NA","NA","184146.975688","NA","NA","NA","NA","NA","183305.4601","NA","Tutorial: Gaze cuing","0","0","0","Greeble","yes","1024"
"undefined","undefined","undefined","undefined","white","no","psycho","psycho","psycho","0","0","uniform","undefined","undefined","NA","NA","m","0","0","45","45","1","1","NA","NA","0","0","NA","45","NA","NA","NA","NA","NA","NA","NA","45","NA","NA","45","NA","0","NA","1","NA","45","NA","NA","NA","02/20/18 13:55:28","The main experiment item","yes","","Python Experiment.osexp","C:\Users\EfKAy\Desktop","no","mono","no","18","no","black","no","Ok","NA","yes","Male","768","psycho","13","13","1","C:/Users/EfKAy/Desktop/Python Experiment/Data/subject-4.csv","psycho","Jazzy James","3.1.9","0","m","y","NA","NA","NA","NA","NA","309.699778418","64602.5989331","NA","NA","NA","NA","NA","NA","NA","links","links","2","legacy","1024","2","48000","-16","experiment","4","even","NA","11188.9587689","185773.800841","185695.393482","163760.396579","163760.055249","NA","NA","11108.0188948","101605.242829","NA","184951.916093","NA","NA","NA","NA","NA","NA","NA","186084.239227","NA","NA","185773.664309","NA","NA","NA","NA","NA","184944.986837","NA","Tutorial: Gaze cuing","0","0","0","Greeble","yes","1024"
"undefined","undefined","undefined","undefined","white","no","psycho","psycho","psycho","0","0","uniform","undefined","undefined","NA","NA","y","0","0","46","46","1","1","NA","NA","0","0","NA","46","NA","NA","NA","NA","NA","NA","NA","46","NA","NA","46","NA","0","NA","1","NA","46","NA","NA","NA","02/20/18 13:55:28","The main experiment item","yes","","Python Experiment.osexp","C:\Users\EfKAy\Desktop","no","mono","no","18","no","black","no","Ok","NA","yes","Male","768","psycho","14","14","1","C:/Users/EfKAy/Desktop/Python Experiment/Data/subject-4.csv","psycho","Jazzy James","3.1.9","0","y","y","NA","NA","NA","NA","NA","300.36273374","64602.5989331","NA","NA","NA","NA","NA","NA","NA","links","links","2","legacy","1024","2","48000","-16","experiment","4","even","NA","11188.9587689","187299.891031","187205.459125","163760.396579","163760.055249","NA","NA","11108.0188948","101605.242829","NA","186461.275979","NA","NA","NA","NA","NA","NA","NA","187600.987753","NA","NA","187299.756039","NA","NA","NA","NA","NA","186451.930722","NA","Tutorial: Gaze cuing","0","0","0","Human","yes","1024"
"undefined","undefined","undefined","undefined","white","no","psycho","psycho","psycho","0","0","uniform","undefined","undefined","NA","NA","y","0","0","47","47","1","1","NA","NA","0","0","NA","47","NA","NA","NA","NA","NA","NA","NA","47","NA","NA","47","NA","0","NA","1","NA","47","NA","NA","NA","02/20/18 13:55:28","The main experiment item","yes","","Python Experiment.osexp","C:\Users\EfKAy\Desktop","no","mono","no","18","no","black","no","Ok","NA","yes","Male","768","psycho","15","15","1","C:/Users/EfKAy/Desktop/Python Experiment/Data/subject-4.csv","psycho","Jazzy James","3.1.9","0","y","y","NA","NA","NA","NA","NA","481.886153857","64602.5989331","NA","NA","NA","NA","NA","NA","NA","links","rechts","2","legacy","1024","2","48000","-16","experiment","4","even","NA","11188.9587689","188809.12465","188714.580849","163760.396579","163760.055249","NA","NA","11108.0188948","101605.242829","NA","187970.474182","NA","NA","NA","NA","NA","NA","NA","189291.778155","NA","NA","188808.989658","NA","NA","NA","NA","NA","187953.244457","NA","Tutorial: Gaze cuing","0","0","0","Human","yes","1024"
"undefined","undefined","undefined","undefined","white","no","psycho","psycho","psycho","0","0","uniform","undefined","undefined","NA","NA","y","0","0","48","48","1","1","NA","NA","0","0","NA","48","NA","NA","NA","NA","NA","NA","NA","48","NA","NA","48","NA","0","NA","1","NA","48","NA","NA","NA","02/20/18 13:55:28","The main experiment item","yes","","Python Experiment.osexp","C:\Users\EfKAy\Desktop","no","mono","no","18","no","black","no","Ok","NA","yes","Male","768","psycho","16","16","1","C:/Users/EfKAy/Desktop/Python Experiment/Data/subject-4.csv","psycho","Jazzy James","3.1.9","0","y","y","NA","NA","NA","NA","NA","453.061987074","64602.5989331","NA","NA","NA","NA","NA","NA","NA","links","links","2","legacy","1024","2","48000","-16","experiment","4","even","NA","11188.9587689","190502.905925","190408.649047","163760.396579","163760.055249","NA","NA","11108.0188948","101605.242829","NA","189664.335528","NA","NA","NA","NA","NA","NA","NA","190956.782484","NA","NA","190502.768366","NA","NA","NA","NA","NA","189648.778577","NA","Tutorial: Gaze cuing","0","0","0","Human","yes","1024"
"undefined","undefined","undefined","undefined","white","no","psycho","psycho","psycho","0","0","uniform","undefined","undefined","NA","NA","y","0","0","49","49","1","1","NA","NA","0","0","NA","49","NA","NA","NA","NA","NA","NA","NA","49","NA","NA","49","NA","0","NA","1","NA","49","NA","NA","NA","02/20/18 13:55:28","The main experiment item","yes","","Python Experiment.osexp","C:\Users\EfKAy\Desktop","no","mono","no","18","no","black","no","Ok","NA","yes","Male","768","psycho","17","17","1","C:/Users/EfKAy/Desktop/Python Experiment/Data/subject-4.csv","psycho","Jazzy James","3.1.9","0","y","y","NA","NA","NA","NA","NA","506.578943991","64602.5989331","NA","NA","NA","NA","NA","NA","NA","rechts","rechts","2","legacy","1024","2","48000","-16","experiment","4","even","NA","11188.9587689","192179.914293","192084.741726","163760.396579","163760.055249","NA","NA","11108.0188948","101605.242829","NA","191341.238674","NA","NA","NA","NA","NA","NA","NA","192687.233384","NA","NA","192179.775708","NA","NA","NA","NA","NA","191334.427471","NA","Tutorial: Gaze cuing","0","0","0","Human","yes","1024"
"undefined","undefined","undefined","undefined","white","no","psycho","psycho","psycho","0","0","uniform","undefined","undefined","NA","NA","m","0","0","50","50","1","1","NA","NA","0","0","NA","50","NA","NA","NA","NA","NA","NA","NA","50","NA","NA","50","NA","0","NA","1","NA","50","NA","NA","NA","02/20/18 13:55:28","The main experiment item","yes","","Python Experiment.osexp","C:\Users\EfKAy\Desktop","no","mono","no","18","no","black","no","Ok","NA","yes","Male","768","psycho","18","18","1","C:/Users/EfKAy/Desktop/Python Experiment/Data/subject-4.csv","psycho","Jazzy James","3.1.9","0","m","y","NA","NA","NA","NA","NA","480.658905557","64602.5989331","NA","NA","NA","NA","NA","NA","NA","links","rechts","2","legacy","1024","2","48000","-16","experiment","4","even","NA","11188.9587689","193873.867516","193795.855381","163760.396579","163760.055249","NA","NA","11108.0188948","101605.242829","NA","193051.945299","NA","NA","NA","NA","NA","NA","NA","194355.271701","NA","NA","193873.708913","NA","NA","NA","NA","NA","193038.678596","NA","Tutorial: Gaze cuing","0","0","0","Greeble","yes","1024"
"undefined","undefined","undefined","undefined","white","no","psycho","psycho","psycho","0","1","uniform","undefined","undefined","NA","NA","y","0","0","51","51","1","1","NA","NA","0","0","NA","51","NA","NA","NA","NA","NA","NA","NA","51","NA","NA","51","NA","0","NA","1","NA","51","NA","NA","NA","02/20/18 13:55:28","The main experiment item","yes","","Python Experiment.osexp","C:\Users\EfKAy\Desktop","no","mono","no","18","no","black","no","Ok","NA","yes","Male","768","psycho","19","19","1","C:/Users/EfKAy/Desktop/Python Experiment/Data/subject-4.csv","psycho","Jazzy James","3.1.9","0","y","y","NA","NA","NA","NA","NA","475.250492619","64602.5989331","NA","NA","NA","NA","NA","NA","NA","rechts","links","2","legacy","1024","2","48000","-16","experiment","4","even","NA","11188.9587689","195567.558453","195472.959219","163760.396579","163760.055249","NA","NA","11108.0188948","101605.242829","NA","194729.073261","NA","NA","NA","NA","NA","NA","NA","196043.550633","NA","NA","195567.419868","NA","NA","NA","NA","NA","194716.450722","NA","Tutorial: Gaze cuing","0","0","0","Human","yes","1024"
"undefined","undefined","undefined","undefined","white","no","psycho","psycho","psycho","0","0","uniform","undefined","undefined","NA","NA","y","0","0","52","52","1","1","NA","NA","0","0","NA","52","NA","NA","NA","NA","NA","NA","NA","52","NA","NA","52","NA","0","NA","1","NA","52","NA","NA","NA","02/20/18 13:55:28","The main experiment item","yes","","Python Experiment.osexp","C:\Users\EfKAy\Desktop","no","mono","no","18","no","black","no","Ok","NA","yes","Male","768","psycho","20","20","1","C:/Users/EfKAy/Desktop/Python Experiment/Data/subject-4.csv","psycho","Jazzy James","3.1.9","0","y","y","NA","NA","NA","NA","NA","347.484756919","64602.5989331","NA","NA","NA","NA","NA","NA","NA","rechts","rechts","2","legacy","1024","2","48000","-16","experiment","4","even","NA","11188.9587689","197261.348967","197166.072205","163760.396579","163760.055249","NA","NA","11108.0188948","101605.242829","NA","196422.696959","NA","NA","NA","NA","NA","NA","NA","197609.571305","NA","NA","197261.210895","NA","NA","NA","NA","NA","196398.781272","NA","Tutorial: Gaze cuing","0","0","0","Human","yes","1024"
"undefined","undefined","undefined","undefined","white","no","psycho","psycho","psycho","0","0","uniform","undefined","undefined","NA","NA","m","0","0","53","53","1","1","NA","NA","0","0","NA","53","NA","NA","NA","NA","NA","NA","NA","53","NA","NA","53","NA","0","NA","1","NA","53","NA","NA","NA","02/20/18 13:55:28","The main experiment item","yes","","Python Experiment.osexp","C:\Users\EfKAy\Desktop","no","mono","no","18","no","black","no","Ok","NA","yes","Male","768","psycho","21","21","1","C:/Users/EfKAy/Desktop/Python Experiment/Data/subject-4.csv","psycho","Jazzy James","3.1.9","0","m","y","NA","NA","NA","NA","NA","710.544942387","64602.5989331","NA","NA","NA","NA","NA","NA","NA","rechts","rechts","2","legacy","1024","2","48000","-16","experiment","4","even","NA","11188.9587689","198787.449936","198709.143693","163760.396579","163760.055249","NA","NA","11108.0188948","101605.242829","NA","197965.52464","NA","NA","NA","NA","NA","NA","NA","199498.72938","NA","NA","198787.316997","NA","NA","NA","NA","NA","197957.056062","NA","Tutorial: Gaze cuing","0","0","0","Greeble","yes","1024"
"undefined","undefined","undefined","undefined","white","no","psycho","psycho","psycho","0","0","uniform","undefined","undefined","NA","NA","y","0","0","54","54","1","1","NA","NA","0","0","NA","54","NA","NA","NA","NA","NA","NA","NA","54","NA","NA","54","NA","0","NA","1","NA","54","NA","NA","NA","02/20/18 13:55:28","The main experiment item","yes","","Python Experiment.osexp","C:\Users\EfKAy\Desktop","no","mono","no","18","no","black","no","Ok","NA","yes","Male","768","psycho","22","22","1","C:/Users/EfKAy/Desktop/Python Experiment/Data/subject-4.csv","psycho","Jazzy James","3.1.9","0","y","y","NA","NA","NA","NA","NA","429.865916322","64602.5989331","NA","NA","NA","NA","NA","NA","NA","rechts","rechts","2","legacy","1024","2","48000","-16","experiment","4","even","NA","11188.9587689","200733.491047","200638.237382","163760.396579","163760.055249","NA","NA","11108.0188948","101605.242829","NA","199894.255954","NA","NA","NA","NA","NA","NA","NA","201164.200792","NA","NA","200733.320638","NA","NA","NA","NA","NA","199872.170618","NA","Tutorial: Gaze cuing","0","0","0","Human","yes","1024"
"undefined","undefined","undefined","undefined","white","no","psycho","psycho","psycho","0","0","uniform","undefined","undefined","NA","NA","m","0","0","55","55","1","1","NA","NA","0","0","NA","55","NA","NA","NA","NA","NA","NA","NA","55","NA","NA","55","NA","0","NA","1","NA","55","NA","NA","NA","02/20/18 13:55:28","The main experiment item","yes","","Python Experiment.osexp","C:\Users\EfKAy\Desktop","no","mono","no","18","no","black","no","Ok","NA","yes","Male","768","psycho","23","23","1","C:/Users/EfKAy/Desktop/Python Experiment/Data/subject-4.csv","psycho","Jazzy James","3.1.9","0","m","y","NA","NA","NA","NA","NA","446.845674168","64602.5989331","NA","NA","NA","NA","NA","NA","NA","links","rechts","2","legacy","1024","2","48000","-16","experiment","4","even","NA","11188.9587689","202359.463131","202281.340642","163760.396579","163760.055249","NA","NA","11108.0188948","101605.242829","NA","201537.525516","NA","NA","NA","NA","NA","NA","NA","202807.039714","NA","NA","202359.327626","NA","NA","NA","NA","NA","201514.437747","NA","Tutorial: Gaze cuing","0","0","0","Greeble","yes","1024"
"undefined","undefined","undefined","undefined","white","no","psycho","psycho","psycho","0","0","uniform","undefined","undefined","NA","NA","m","0","0","56","56","1","1","NA","NA","0","0","NA","56","NA","NA","NA","NA","NA","NA","NA","56","NA","NA","56","NA","0","NA","1","NA","56","NA","NA","NA","02/20/18 13:55:28","The main experiment item","yes","","Python Experiment.osexp","C:\Users\EfKAy\Desktop","no","mono","no","18","no","black","no","Ok","NA","yes","Male","768","psycho","24","24","1","C:/Users/EfKAy/Desktop/Python Experiment/Data/subject-4.csv","psycho","Jazzy James","3.1.9","0","m","y","NA","NA","NA","NA","NA","396.465360647","64602.5989331","NA","NA","NA","NA","NA","NA","NA","links","rechts","2","legacy","1024","2","48000","-16","experiment","4","even","NA","11188.9587689","204019.6293","203941.407234","163760.396579","163760.055249","NA","NA","11108.0188948","101605.242829","NA","203197.799473","NA","NA","NA","NA","NA","NA","NA","204416.829675","NA","NA","204019.494821","NA","NA","NA","NA","NA","203182.861023","NA","Tutorial: Gaze cuing","0","0","0","Greeble","yes","1024"
"undefined","undefined","undefined","undefined","white","no","psycho","psycho","psycho","0","0","uniform","undefined","undefined","NA","NA","y","0","0","57","57","1","1","NA","NA","0","0","NA","57","NA","NA","NA","NA","NA","NA","NA","57","NA","NA","57","NA","0","NA","1","NA","57","NA","NA","NA","02/20/18 13:55:28","The main experiment item","yes","","Python Experiment.osexp","C:\Users\EfKAy\Desktop","no","mono","no","18","no","black","no","Ok","NA","yes","Male","768","psycho","25","25","1","C:/Users/EfKAy/Desktop/Python Experiment/Data/subject-4.csv","psycho","Jazzy James","3.1.9","0","y","y","NA","NA","NA","NA","NA","512.622282127","64602.5989331","NA","NA","NA","NA","NA","NA","NA","rechts","rechts","2","legacy","1024","2","48000","-16","experiment","4","even","NA","11188.9587689","205629.634325","205534.528998","163760.396579","163760.055249","NA","NA","11108.0188948","101605.242829","NA","204790.978724","NA","NA","NA","NA","NA","NA","NA","206142.995728","NA","NA","205629.496253","NA","NA","NA","NA","NA","204768.765581","NA","Tutorial: Gaze cuing","0","0","0","Human","yes","1024"
"undefined","undefined","undefined","undefined","white","no","psycho","psycho","psycho","0","1","uniform","undefined","undefined","NA","NA","m","0","0","58","58","1","1","NA","NA","0","0","NA","58","NA","NA","NA","NA","NA","NA","NA","58","NA","NA","58","NA","0","NA","1","NA","58","NA","NA","NA","02/20/18 13:55:28","The main experiment item","yes","","Python Experiment.osexp","C:\Users\EfKAy\Desktop","no","mono","no","18","no","black","no","Ok","NA","yes","Male","768","psycho","26","26","1","C:/Users/EfKAy/Desktop/Python Experiment/Data/subject-4.csv","psycho","Jazzy James","3.1.9","0","m","y","NA","NA","NA","NA","NA","393.275849591","64602.5989331","NA","NA","NA","NA","NA","NA","NA","rechts","links","2","legacy","1024","2","48000","-16","experiment","4","even","NA","11188.9587689","207356.978865","207278.616161","163760.396579","163760.055249","NA","NA","11108.0188948","101605.242829","NA","206535.089498","NA","NA","NA","NA","NA","NA","NA","207750.993835","NA","NA","207356.842333","NA","NA","NA","NA","NA","206517.574391","NA","Tutorial: Gaze cuing","0","0","0","Greeble","yes","1024"
"undefined","undefined","undefined","undefined","white","no","psycho","psycho","psycho","0","1","uniform","undefined","undefined","NA","NA","m","0","0","59","59","1","1","NA","NA","0","0","NA","59","NA","NA","NA","NA","NA","NA","NA","59","NA","NA","59","NA","0","NA","1","NA","59","NA","NA","NA","02/20/18 13:55:28","The main experiment item","yes","","Python Experiment.osexp","C:\Users\EfKAy\Desktop","no","mono","no","18","no","black","no","Ok","NA","yes","Male","768","psycho","27","27","1","C:/Users/EfKAy/Desktop/Python Experiment/Data/subject-4.csv","psycho","Jazzy James","3.1.9","0","m","y","NA","NA","NA","NA","NA","507.999698193","64602.5989331","NA","NA","NA","NA","NA","NA","NA","rechts","links","2","legacy","1024","2","48000","-16","experiment","4","even","NA","11188.9587689","208933.3462","208855.690793","163760.396579","163760.055249","NA","NA","11108.0188948","101605.242829","NA","208111.405505","NA","NA","NA","NA","NA","NA","NA","209442.089638","NA","NA","208933.208128","NA","NA","NA","NA","NA","208097.924251","NA","Tutorial: Gaze cuing","0","0","0","Greeble","yes","1024"
"undefined","undefined","undefined","undefined","white","no","psycho","psycho","psycho","0","1","uniform","undefined","undefined","NA","NA","m","0","0","60","60","1","1","NA","NA","0","0","NA","60","NA","NA","NA","NA","NA","NA","NA","60","NA","NA","60","NA","0","NA","1","NA","60","NA","NA","NA","02/20/18 13:55:28","The main experiment item","yes","","Python Experiment.osexp","C:\Users\EfKAy\Desktop","no","mono","no","18","no","black","no","Ok","NA","yes","Male","768","psycho","28","28","1","C:/Users/EfKAy/Desktop/Python Experiment/Data/subject-4.csv","psycho","Jazzy James","3.1.9","0","m","y","NA","NA","NA","NA","NA","297.498127818","64602.5989331","NA","NA","NA","NA","NA","NA","NA","rechts","links","2","legacy","1024","2","48000","-16","experiment","4","even","NA","11188.9587689","210627.025332","210548.823797","163760.396579","163760.055249","NA","NA","11108.0188948","101605.242829","NA","209805.224249","NA","NA","NA","NA","NA","NA","NA","210925.254881","NA","NA","210626.89034","NA","NA","NA","NA","NA","209789.521527","NA","Tutorial: Gaze cuing","0","0","0","Greeble","yes","1024"
"undefined","undefined","undefined","undefined","white","no","psycho","psycho","psycho","0","0","uniform","undefined","undefined","NA","NA","m","0","0","61","61","1","1","NA","NA","0","0","NA","61","NA","NA","NA","NA","NA","NA","NA","61","NA","NA","61","NA","0","NA","1","NA","61","NA","NA","NA","02/20/18 13:55:28","The main experiment item","yes","","Python Experiment.osexp","C:\Users\EfKAy\Desktop","no","mono","no","18","no","black","no","Ok","NA","yes","Male","768","psycho","29","29","1","C:/Users/EfKAy/Desktop/Python Experiment/Data/subject-4.csv","psycho","Jazzy James","3.1.9","0","m","y","NA","NA","NA","NA","NA","323.376077435","64602.5989331","NA","NA","NA","NA","NA","NA","NA","links","rechts","2","legacy","1024","2","48000","-16","experiment","4","even","NA","11188.9587689","212119.595372","212041.879399","163760.396579","163760.055249","NA","NA","11108.0188948","101605.242829","NA","211297.750147","NA","NA","NA","NA","NA","NA","NA","212443.726996","NA","NA","212119.45884","NA","NA","NA","NA","NA","211279.245953","NA","Tutorial: Gaze cuing","0","0","0","Greeble","yes","1024"
"undefined","undefined","undefined","undefined","white","no","psycho","psycho","psycho","0","0","uniform","undefined","undefined","NA","NA","y","0","0","62","62","1","1","NA","NA","0","0","NA","62","NA","NA","NA","NA","NA","NA","NA","62","NA","NA","62","NA","0","NA","1","NA","62","NA","NA","NA","02/20/18 13:55:28","The main experiment item","yes","","Python Experiment.osexp","C:\Users\EfKAy\Desktop","no","mono","no","18","no","black","no","Ok","NA","yes","Male","768","psycho","30","30","1","C:/Users/EfKAy/Desktop/Python Experiment/Data/subject-4.csv","psycho","Jazzy James","3.1.9","0","y","y","NA","NA","NA","NA","NA","388.947374094","64602.5989331","NA","NA","NA","NA","NA","NA","NA","links","rechts","2","legacy","1024","2","48000","-16","experiment","4","even","NA","11188.9587689","213662.469248","213568.008085","163760.396579","163760.055249","NA","NA","11108.0188948","101605.242829","NA","212823.825453","NA","NA","NA","NA","NA","NA","NA","214052.181407","NA","NA","213662.334256","NA","NA","NA","NA","NA","212802.920656","NA","Tutorial: Gaze cuing","0","0","0","Human","yes","1024"
"undefined","undefined","undefined","undefined","white","no","psycho","psycho","psycho","0","0","uniform","undefined","undefined","NA","NA","y","0","0","63","63","1","1","NA","NA","0","0","NA","63","NA","NA","NA","NA","NA","NA","NA","63","NA","NA","63","NA","0","NA","1","NA","63","NA","NA","NA","02/20/18 13:55:28","The main experiment item","yes","","Python Experiment.osexp","C:\Users\EfKAy\Desktop","no","mono","no","18","no","black","no","Ok","NA","yes","Male","768","psycho","31","31","1","C:/Users/EfKAy/Desktop/Python Experiment/Data/subject-4.csv","psycho","Jazzy James","3.1.9","0","y","y","NA","NA","NA","NA","NA","353.874044597","64602.5989331","NA","NA","NA","NA","NA","NA","NA","links","links","2","legacy","1024","2","48000","-16","experiment","4","even","NA","11188.9587689","215238.829397","215144.094657","163760.396579","163760.055249","NA","NA","11108.0188948","101605.242829","NA","214400.241035","NA","NA","NA","NA","NA","NA","NA","215593.454881","NA","NA","215238.693378","NA","NA","NA","NA","NA","214392.465383","NA","Tutorial: Gaze cuing","0","0","0","Human","yes","1024"
