"acc","accuracy","average_response_time","avg_rt","background","bidi","canvas_backend","clock_backend","color_backend","compensation","congruency","coordinates","correct","correct_Introduction","correct_keyboard_response","correct_new_mouse_response","correct_response","count_Gender","count_Introduction","count_Response","count_Target_1","count_block_loop","count_block_sequence","count_end_of_experiment","count_end_of_practice","count_experiment","count_experimental_loop","count_feedback","count_fixation_dot","count_gaze_cue","count_gaze_cue_1","count_gaze_neutral","count_getting_started","count_incorrect_sound","count_instructions","count_keyboard_response","count_logger","count_neutral_gaze","count_new_mouse_response","count_new_sketchpad","count_new_sketchpad_1","count_new_sketchpad_3","count_practice_loop","count_reset_feedback","count_target","count_trial_sequence","count_welcome","cursor_x","cursor_y","datetime","description","disable_garbage_collection","empty_column","experiment_file","experiment_path","font_bold","font_family","font_italic","font_size","font_underline","foreground","form_clicks","form_response","form_var","fullscreen","gender_subject","height","keyboard_backend","live_row","live_row_block_loop","live_row_experimental_loop","logfile","mouse_backend","opensesame_codename","opensesame_version","repeat_cycle","response","response_Introduction","response_feedback","response_keyboard_response","response_new_mouse_response","response_new_sketchpad_1","response_new_sketchpad_3","response_time","response_time_Introduction","response_time_feedback","response_time_keyboard_response","response_time_new_mouse_response","response_time_new_sketchpad_1","response_time_new_sketchpad_3","response_time_welcome","response_welcome","richtung_bild_links","richtung_bild_rechts","round_decimals","sampler_backend","sound_buf_size","sound_channels","sound_freq","sound_sample_size","start","subject_nr","subject_parity","time_Gender","time_Introduction","time_Response","time_Target_1","time_block_loop","time_block_sequence","time_end_of_experiment","time_end_of_practice","time_experiment","time_experimental_loop","time_feedback","time_fixation_dot","time_gaze_cue","time_gaze_cue_1","time_gaze_neutral","time_getting_started","time_incorrect_sound","time_instructions","time_keyboard_response","time_logger","time_neutral_gaze","time_new_mouse_response","time_new_sketchpad","time_new_sketchpad_1","time_new_sketchpad_3","time_practice_loop","time_reset_feedback","time_target","time_trial_sequence","time_welcome","title","total_correct","total_response_time","total_responses","type","uniform_coordinates","width"
"undefined","undefined","undefined","undefined","white","no","psycho","psycho","psycho","0","0","uniform","undefined","undefined","NA","NA","m","0","0","0","0","0","0","NA","NA","0","0","NA","0","NA","NA","NA","NA","NA","NA","NA","0","NA","NA","0","NA","0","NA","0","NA","0","NA","NA","NA","02/13/18 14:56:26","The main experiment item","yes","","Python Experiment.osexp","C:\Users\EfKAy\Desktop","no","mono","no","18","no","black","no","Ok","NA","yes","Female","768","psycho","0","0","0","C:/Users/EfKAy/Desktop/subject-3.csv","psycho","Jazzy James","3.1.9","0","None","space","NA","NA","NA","NA","NA","3000.0656986","2553.22331212","NA","NA","NA","NA","NA","NA","NA","links","links","2","legacy","1024","2","48000","-16","experiment","3","odd","NA","6383.82100004","42235.9411402","42158.8535799","41149.0244527","41148.8360825","NA","NA","6303.53525218","41146.7516916","NA","41414.537664","NA","NA","NA","NA","NA","NA","NA","45236.5267817","NA","NA","42235.7917785","NA","NA","NA","NA","NA","41397.4580799","NA","Tutorial: Gaze cuing","0","0","0","Greeble","yes","1024"
"undefined","undefined","undefined","undefined","white","no","psycho","psycho","psycho","0","0","uniform","undefined","undefined","NA","NA","y","0","0","1","1","0","0","NA","NA","0","0","NA","1","NA","NA","NA","NA","NA","NA","NA","1","NA","NA","1","NA","0","NA","0","NA","1","NA","NA","NA","02/13/18 14:56:26","The main experiment item","yes","","Python Experiment.osexp","C:\Users\EfKAy\Desktop","no","mono","no","18","no","black","no","Ok","NA","yes","Female","768","psycho","1","1","0","C:/Users/EfKAy/Desktop/subject-3.csv","psycho","Jazzy James","3.1.9","0","y","space","NA","NA","NA","NA","NA","359.418587879","2553.22331212","NA","NA","NA","NA","NA","NA","NA","links","links","2","legacy","1024","2","48000","-16","experiment","3","odd","NA","6383.82100004","47049.9278599","46955.1237469","41149.0244527","41148.8360825","NA","NA","6303.53525218","41146.7516916","NA","46211.284146","NA","NA","NA","NA","NA","NA","NA","47410.1743528","NA","NA","47049.793383","NA","NA","NA","NA","NA","46189.3177149","NA","Tutorial: Gaze cuing","0","0","0","Human","yes","1024"
"undefined","undefined","undefined","undefined","white","no","psycho","psycho","psycho","0","1","uniform","undefined","undefined","NA","NA","y","0","0","2","2","0","0","NA","NA","0","0","NA","2","NA","NA","NA","NA","NA","NA","NA","2","NA","NA","2","NA","0","NA","0","NA","2","NA","NA","NA","02/13/18 14:56:26","The main experiment item","yes","","Python Experiment.osexp","C:\Users\EfKAy\Desktop","no","mono","no","18","no","black","no","Ok","NA","yes","Female","768","psycho","2","2","0","C:/Users/EfKAy/Desktop/subject-3.csv","psycho","Jazzy James","3.1.9","0","m","space","NA","NA","NA","NA","NA","251.538912822","2553.22331212","NA","NA","NA","NA","NA","NA","NA","rechts","links","2","legacy","1024","2","48000","-16","experiment","3","odd","NA","6383.82100004","48710.2291188","48615.2166181","41149.0244527","41148.8360825","NA","NA","6303.53525218","41146.7516916","NA","47871.7460585","NA","NA","NA","NA","NA","NA","NA","48962.5204859","NA","NA","48710.0658988","NA","NA","NA","NA","NA","47858.5416655","NA","Tutorial: Gaze cuing","0","0","0","Human","yes","1024"
"undefined","undefined","undefined","undefined","white","no","psycho","psycho","psycho","0","0","uniform","undefined","undefined","NA","NA","y","0","0","3","3","0","0","NA","NA","0","0","NA","3","NA","NA","NA","NA","NA","NA","NA","3","NA","NA","3","NA","0","NA","0","NA","3","NA","NA","NA","02/13/18 14:56:26","The main experiment item","yes","","Python Experiment.osexp","C:\Users\EfKAy\Desktop","no","mono","no","18","no","black","no","Ok","NA","yes","Female","768","psycho","3","3","0","C:/Users/EfKAy/Desktop/subject-3.csv","psycho","Jazzy James","3.1.9","0","y","space","NA","NA","NA","NA","NA","318.610002305","2553.22331212","NA","NA","NA","NA","NA","NA","NA","links","links","2","legacy","1024","2","48000","-16","experiment","3","odd","NA","6383.82100004","50185.9167855","50091.2979632","41149.0244527","41148.8360825","NA","NA","6303.53525218","41146.7516916","NA","49347.4778665","NA","NA","NA","NA","NA","NA","NA","50505.3043924","NA","NA","50185.7823087","NA","NA","NA","NA","NA","49324.5680445","NA","Tutorial: Gaze cuing","0","0","0","Human","yes","1024"
"undefined","undefined","undefined","undefined","white","no","psycho","psycho","psycho","0","0","uniform","undefined","undefined","NA","NA","y","0","0","4","4","0","0","NA","NA","0","0","NA","4","NA","NA","NA","NA","NA","NA","NA","4","NA","NA","4","NA","0","NA","0","NA","4","NA","NA","NA","02/13/18 14:56:26","The main experiment item","yes","","Python Experiment.osexp","C:\Users\EfKAy\Desktop","no","mono","no","18","no","black","no","Ok","NA","yes","Female","768","psycho","4","4","0","C:/Users/EfKAy/Desktop/subject-3.csv","psycho","Jazzy James","3.1.9","0","y","space","NA","NA","NA","NA","NA","304.901064574","2553.22331212","NA","NA","NA","NA","NA","NA","NA","links","rechts","2","legacy","1024","2","48000","-16","experiment","3","odd","NA","6383.82100004","51712.0969095","51617.409309","41149.0244527","41148.8360825","NA","NA","6303.53525218","41146.7516916","NA","50873.3659397","NA","NA","NA","NA","NA","NA","NA","52017.7642868","NA","NA","51711.9588398","NA","NA","NA","NA","NA","50865.6694508","NA","Tutorial: Gaze cuing","0","0","0","Human","yes","1024"
"undefined","undefined","undefined","undefined","white","no","psycho","psycho","psycho","0","0","uniform","undefined","undefined","NA","NA","m","0","0","5","5","0","0","NA","NA","0","0","NA","5","NA","NA","NA","NA","NA","NA","NA","5","NA","NA","5","NA","0","NA","0","NA","5","NA","NA","NA","02/13/18 14:56:26","The main experiment item","yes","","Python Experiment.osexp","C:\Users\EfKAy\Desktop","no","mono","no","18","no","black","no","Ok","NA","yes","Female","768","psycho","5","5","0","C:/Users/EfKAy/Desktop/subject-3.csv","psycho","Jazzy James","3.1.9","0","m","space","NA","NA","NA","NA","NA","377.023760824","2553.22331212","NA","NA","NA","NA","NA","NA","NA","links","rechts","2","legacy","1024","2","48000","-16","experiment","3","odd","NA","6383.82100004","53271.6934996","53193.4577535","41149.0244527","41148.8360825","NA","NA","6303.53525218","41146.7516916","NA","52449.7859919","NA","NA","NA","NA","NA","NA","NA","53649.4804934","NA","NA","53271.5451645","NA","NA","NA","NA","NA","52428.3235923","NA","Tutorial: Gaze cuing","0","0","0","Greeble","yes","1024"
"undefined","undefined","undefined","undefined","white","no","psycho","psycho","psycho","0","1","uniform","undefined","undefined","NA","NA","m","0","0","6","6","0","0","NA","NA","0","0","NA","6","NA","NA","NA","NA","NA","NA","NA","6","NA","NA","6","NA","0","NA","0","NA","6","NA","NA","NA","02/13/18 14:56:26","The main experiment item","yes","","Python Experiment.osexp","C:\Users\EfKAy\Desktop","no","mono","no","18","no","black","no","Ok","NA","yes","Female","768","psycho","6","6","0","C:/Users/EfKAy/Desktop/subject-3.csv","psycho","Jazzy James","3.1.9","0","m","space","NA","NA","NA","NA","NA","430.877625569","2553.22331212","NA","NA","NA","NA","NA","NA","NA","rechts","links","2","legacy","1024","2","48000","-16","experiment","3","odd","NA","6383.82100004","54848.0211632","54769.6016663","41149.0244527","41148.8360825","NA","NA","6303.53525218","41146.7516916","NA","54026.120328","NA","NA","NA","NA","NA","NA","NA","55279.6466236","NA","NA","54847.8851465","NA","NA","NA","NA","NA","54008.0465392","NA","Tutorial: Gaze cuing","0","0","0","Greeble","yes","1024"
"undefined","undefined","undefined","undefined","white","no","psycho","psycho","psycho","0","1","uniform","undefined","undefined","NA","NA","m","0","0","7","7","0","0","NA","NA","0","0","NA","7","NA","NA","NA","NA","NA","NA","NA","7","NA","NA","7","NA","0","NA","0","NA","7","NA","NA","NA","02/13/18 14:56:26","The main experiment item","yes","","Python Experiment.osexp","C:\Users\EfKAy\Desktop","no","mono","no","18","no","black","no","Ok","NA","yes","Female","768","psycho","7","7","0","C:/Users/EfKAy/Desktop/subject-3.csv","psycho","Jazzy James","3.1.9","0","m","space","NA","NA","NA","NA","NA","282.738050939","2553.22331212","NA","NA","NA","NA","NA","NA","NA","rechts","links","2","legacy","1024","2","48000","-16","experiment","3","odd","NA","6383.82100004","56474.8027887","56396.6707232","41149.0244527","41148.8360825","NA","NA","6303.53525218","41146.7516916","NA","55652.8809095","NA","NA","NA","NA","NA","NA","NA","56758.274303","NA","NA","56474.6662588","NA","NA","NA","NA","NA","55641.3389992","NA","Tutorial: Gaze cuing","0","0","0","Greeble","yes","1024"
"undefined","undefined","undefined","undefined","white","no","psycho","psycho","psycho","0","0","uniform","undefined","undefined","NA","NA","m","0","0","8","8","0","0","NA","NA","0","0","NA","8","NA","NA","NA","NA","NA","NA","NA","8","NA","NA","8","NA","0","NA","0","NA","8","NA","NA","NA","02/13/18 14:56:26","The main experiment item","yes","","Python Experiment.osexp","C:\Users\EfKAy\Desktop","no","mono","no","18","no","black","no","Ok","NA","yes","Female","768","psycho","8","8","0","C:/Users/EfKAy/Desktop/subject-3.csv","psycho","Jazzy James","3.1.9","0","m","space","NA","NA","NA","NA","NA","272.715934119","2553.22331212","NA","NA","NA","NA","NA","NA","NA","rechts","rechts","2","legacy","1024","2","48000","-16","experiment","3","odd","NA","6383.82100004","57950.5068801","57872.7756788","41149.0244527","41148.8360825","NA","NA","6303.53525218","41146.7516916","NA","57128.6660976","NA","NA","NA","NA","NA","NA","NA","58223.9614103","NA","NA","57950.3708635","NA","NA","NA","NA","NA","57114.7898338","NA","Tutorial: Gaze cuing","0","0","0","Greeble","yes","1024"
"undefined","undefined","undefined","undefined","white","no","psycho","psycho","psycho","0","0","uniform","undefined","undefined","NA","NA","y","0","0","9","9","0","0","NA","NA","0","0","NA","9","NA","NA","NA","NA","NA","NA","NA","9","NA","NA","9","NA","0","NA","0","NA","9","NA","NA","NA","02/13/18 14:56:26","The main experiment item","yes","","Python Experiment.osexp","C:\Users\EfKAy\Desktop","no","mono","no","18","no","black","no","Ok","NA","yes","Female","768","psycho","9","9","0","C:/Users/EfKAy/Desktop/subject-3.csv","psycho","Jazzy James","3.1.9","0","y","space","NA","NA","NA","NA","NA","305.983038468","2553.22331212","NA","NA","NA","NA","NA","NA","NA","rechts","rechts","2","legacy","1024","2","48000","-16","experiment","3","odd","NA","6383.82100004","59426.3064398","59331.8344128","41149.0244527","41148.8360825","NA","NA","6303.53525218","41146.7516916","NA","58587.5913814","NA","NA","NA","NA","NA","NA","NA","59733.0455255","NA","NA","59426.1581047","NA","NA","NA","NA","NA","58578.2539672","NA","Tutorial: Gaze cuing","0","0","0","Human","yes","1024"
"undefined","undefined","undefined","undefined","white","no","psycho","psycho","psycho","0","1","uniform","undefined","undefined","NA","NA","y","0","0","10","10","0","0","NA","NA","0","0","NA","10","NA","NA","NA","NA","NA","NA","NA","10","NA","NA","10","NA","0","NA","0","NA","10","NA","NA","NA","02/13/18 14:56:26","The main experiment item","yes","","Python Experiment.osexp","C:\Users\EfKAy\Desktop","no","mono","no","18","no","black","no","Ok","NA","yes","Female","768","psycho","10","10","0","C:/Users/EfKAy/Desktop/subject-3.csv","psycho","Jazzy James","3.1.9","0","y","space","NA","NA","NA","NA","NA","301.178828009","2553.22331212","NA","NA","NA","NA","NA","NA","NA","rechts","links","2","legacy","1024","2","48000","-16","experiment","3","odd","NA","6383.82100004","60952.2715036","60857.8995643","41149.0244527","41148.8360825","NA","NA","6303.53525218","41146.7516916","NA","60113.8567083","NA","NA","NA","NA","NA","NA","NA","61254.204839","NA","NA","60952.1180358","NA","NA","NA","NA","NA","60101.7019531","NA","Tutorial: Gaze cuing","0","0","0","Human","yes","1024"
"undefined","undefined","undefined","undefined","white","no","psycho","psycho","psycho","0","0","uniform","undefined","undefined","NA","NA","m","0","0","11","11","0","0","NA","NA","0","0","NA","11","NA","NA","NA","NA","NA","NA","NA","11","NA","NA","11","NA","0","NA","0","NA","11","NA","NA","NA","02/13/18 14:56:26","The main experiment item","yes","","Python Experiment.osexp","C:\Users\EfKAy\Desktop","no","mono","no","18","no","black","no","Ok","NA","yes","Female","768","psycho","11","11","0","C:/Users/EfKAy/Desktop/subject-3.csv","psycho","Jazzy James","3.1.9","0","m","space","NA","NA","NA","NA","NA","338.340114489","2553.22331212","NA","NA","NA","NA","NA","NA","NA","links","links","2","legacy","1024","2","48000","-16","experiment","3","odd","NA","6383.82100004","62444.8739947","62367.0160156","41149.0244527","41148.8360825","NA","NA","6303.53525218","41146.7516916","NA","61623.0655482","NA","NA","NA","NA","NA","NA","NA","62783.9532185","NA","NA","62444.7348984","NA","NA","NA","NA","NA","61616.3109104","NA","Tutorial: Gaze cuing","0","0","0","Greeble","yes","1024"
"undefined","undefined","undefined","undefined","white","no","psycho","psycho","psycho","0","0","uniform","undefined","undefined","NA","NA","y","0","0","12","12","0","0","NA","NA","0","0","NA","12","NA","NA","NA","NA","NA","NA","NA","12","NA","NA","12","NA","0","NA","0","NA","12","NA","NA","NA","02/13/18 14:56:26","The main experiment item","yes","","Python Experiment.osexp","C:\Users\EfKAy\Desktop","no","mono","no","18","no","black","no","Ok","NA","yes","Female","768","psycho","12","12","0","C:/Users/EfKAy/Desktop/subject-3.csv","psycho","Jazzy James","3.1.9","0","y","space","NA","NA","NA","NA","NA","411.738800825","2553.22331212","NA","NA","NA","NA","NA","NA","NA","links","links","2","legacy","1024","2","48000","-16","experiment","3","odd","NA","6383.82100004","64004.5501416","63910.1140435","41149.0244527","41148.8360825","NA","NA","6303.53525218","41146.7516916","NA","63165.8710121","NA","NA","NA","NA","NA","NA","NA","64417.0347243","NA","NA","64004.3884615","NA","NA","NA","NA","NA","63143.0664105","NA","Tutorial: Gaze cuing","0","0","0","Human","yes","1024"
"undefined","undefined","undefined","undefined","white","no","psycho","psycho","psycho","0","0","uniform","undefined","undefined","NA","NA","m","0","0","13","13","0","0","NA","NA","0","0","NA","13","NA","NA","NA","NA","NA","NA","NA","13","NA","NA","13","NA","0","NA","0","NA","13","NA","NA","NA","02/13/18 14:56:26","The main experiment item","yes","","Python Experiment.osexp","C:\Users\EfKAy\Desktop","no","mono","no","18","no","black","no","Ok","NA","yes","Female","768","psycho","13","13","0","C:/Users/EfKAy/Desktop/subject-3.csv","psycho","Jazzy James","3.1.9","0","m","space","NA","NA","NA","NA","NA","357.125809234","2553.22331212","NA","NA","NA","NA","NA","NA","NA","links","rechts","2","legacy","1024","2","48000","-16","experiment","3","odd","NA","6383.82100004","65614.4641637","65536.1976214","41149.0244527","41148.8360825","NA","NA","6303.53525218","41146.7516916","NA","64792.6208149","NA","NA","NA","NA","NA","NA","NA","65972.3578254","NA","NA","65614.3245542","NA","NA","NA","NA","NA","64774.8113603","NA","Tutorial: Gaze cuing","0","0","0","Greeble","yes","1024"
"undefined","undefined","undefined","undefined","white","no","psycho","psycho","psycho","0","1","uniform","undefined","undefined","NA","NA","m","0","0","14","14","0","0","NA","NA","0","0","NA","14","NA","NA","NA","NA","NA","NA","NA","14","NA","NA","14","NA","0","NA","0","NA","14","NA","NA","NA","02/13/18 14:56:26","The main experiment item","yes","","Python Experiment.osexp","C:\Users\EfKAy\Desktop","no","mono","no","18","no","black","no","Ok","NA","yes","Female","768","psycho","14","14","0","C:/Users/EfKAy/Desktop/subject-3.csv","psycho","Jazzy James","3.1.9","0","m","space","NA","NA","NA","NA","NA","277.962583617","2553.22331212","NA","NA","NA","NA","NA","NA","NA","rechts","links","2","legacy","1024","2","48000","-16","experiment","3","odd","NA","6383.82100004","67174.0833377","67096.2546149","41149.0244527","41148.8360825","NA","NA","6303.53525218","41146.7516916","NA","66352.225104","NA","NA","NA","NA","NA","NA","NA","67452.7988889","NA","NA","67173.8882949","NA","NA","NA","NA","NA","66338.0624352","NA","Tutorial: Gaze cuing","0","0","0","Greeble","yes","1024"
"undefined","undefined","undefined","undefined","white","no","psycho","psycho","psycho","0","0","uniform","undefined","undefined","NA","NA","m","0","0","15","15","0","0","NA","NA","0","0","NA","15","NA","NA","NA","NA","NA","NA","NA","15","NA","NA","15","NA","0","NA","0","NA","15","NA","NA","NA","02/13/18 14:56:26","The main experiment item","yes","","Python Experiment.osexp","C:\Users\EfKAy\Desktop","no","mono","no","18","no","black","no","Ok","NA","yes","Female","768","psycho","15","15","0","C:/Users/EfKAy/Desktop/subject-3.csv","psycho","Jazzy James","3.1.9","0","m","space","NA","NA","NA","NA","NA","296.499342245","2553.22331212","NA","NA","NA","NA","NA","NA","NA","rechts","rechts","2","legacy","1024","2","48000","-16","experiment","3","odd","NA","6383.82100004","68633.0702138","68555.3641627","41149.0244527","41148.8360825","NA","NA","6303.53525218","41146.7516916","NA","67811.2160863","NA","NA","NA","NA","NA","NA","NA","68930.3410014","NA","NA","68632.9234185","NA","NA","NA","NA","NA","67803.3414926","NA","Tutorial: Gaze cuing","0","0","0","Greeble","yes","1024"
"undefined","undefined","undefined","undefined","white","no","psycho","psycho","psycho","0","0","uniform","undefined","undefined","NA","NA","m","0","0","16","16","0","0","NA","NA","0","0","NA","16","NA","NA","NA","NA","NA","NA","NA","16","NA","NA","16","NA","0","NA","0","NA","16","NA","NA","NA","02/13/18 14:56:26","The main experiment item","yes","","Python Experiment.osexp","C:\Users\EfKAy\Desktop","no","mono","no","18","no","black","no","Ok","NA","yes","Female","768","psycho","16","16","0","C:/Users/EfKAy/Desktop/subject-3.csv","psycho","Jazzy James","3.1.9","0","m","space","NA","NA","NA","NA","NA","272.085124861","2553.22331212","NA","NA","NA","NA","NA","NA","NA","links","links","2","legacy","1024","2","48000","-16","experiment","3","odd","NA","6383.82100004","70125.5803163","70047.4513304","41149.0244527","41148.8360825","NA","NA","6303.53525218","41146.7516916","NA","69303.6948793","NA","NA","NA","NA","NA","NA","NA","70398.4153291","NA","NA","70125.4442996","NA","NA","NA","NA","NA","69285.4281008","NA","Tutorial: Gaze cuing","0","0","0","Greeble","yes","1024"
"undefined","undefined","undefined","undefined","white","no","psycho","psycho","psycho","0","0","uniform","undefined","undefined","NA","NA","y","0","0","17","17","0","0","NA","NA","0","0","NA","17","NA","NA","NA","NA","NA","NA","NA","17","NA","NA","17","NA","0","NA","0","NA","17","NA","NA","NA","02/13/18 14:56:26","The main experiment item","yes","","Python Experiment.osexp","C:\Users\EfKAy\Desktop","no","mono","no","18","no","black","no","Ok","NA","yes","Female","768","psycho","17","17","0","C:/Users/EfKAy/Desktop/subject-3.csv","psycho","Jazzy James","3.1.9","0","m","space","NA","NA","NA","NA","NA","256.239955941","2553.22331212","NA","NA","NA","NA","NA","NA","NA","rechts","rechts","2","legacy","1024","2","48000","-16","experiment","3","odd","NA","6383.82100004","71601.4383888","71506.5069848","41149.0244527","41148.8360825","NA","NA","6303.53525218","41146.7516916","NA","70762.7407815","NA","NA","NA","NA","NA","NA","NA","71858.4164275","NA","NA","71601.2900537","NA","NA","NA","NA","NA","70755.6376332","NA","Tutorial: Gaze cuing","0","0","0","Human","yes","1024"
"undefined","undefined","undefined","undefined","white","no","psycho","psycho","psycho","0","0","uniform","undefined","undefined","NA","NA","y","0","0","18","18","0","0","NA","NA","0","0","NA","18","NA","NA","NA","NA","NA","NA","NA","18","NA","NA","18","NA","0","NA","0","NA","18","NA","NA","NA","02/13/18 14:56:26","The main experiment item","yes","","Python Experiment.osexp","C:\Users\EfKAy\Desktop","no","mono","no","18","no","black","no","Ok","NA","yes","Female","768","psycho","18","18","0","C:/Users/EfKAy/Desktop/subject-3.csv","psycho","Jazzy James","3.1.9","0","y","space","NA","NA","NA","NA","NA","290.089622134","2553.22331212","NA","NA","NA","NA","NA","NA","NA","links","rechts","2","legacy","1024","2","48000","-16","experiment","3","odd","NA","6383.82100004","73110.6241316","73015.6188167","41149.0244527","41148.8360825","NA","NA","6303.53525218","41146.7516916","NA","72272.0681869","NA","NA","NA","NA","NA","NA","NA","73401.4672346","NA","NA","73110.4891415","NA","NA","NA","NA","NA","72254.7504454","NA","Tutorial: Gaze cuing","0","0","0","Human","yes","1024"
"undefined","undefined","undefined","undefined","white","no","psycho","psycho","psycho","0","0","uniform","undefined","undefined","NA","NA","y","0","0","19","19","0","0","NA","NA","0","0","NA","19","NA","NA","NA","NA","NA","NA","NA","19","NA","NA","19","NA","0","NA","0","NA","19","NA","NA","NA","02/13/18 14:56:26","The main experiment item","yes","","Python Experiment.osexp","C:\Users\EfKAy\Desktop","no","mono","no","18","no","black","no","Ok","NA","yes","Female","768","psycho","19","19","0","C:/Users/EfKAy/Desktop/subject-3.csv","psycho","Jazzy James","3.1.9","0","m","space","NA","NA","NA","NA","NA","347.667263259","2553.22331212","NA","NA","NA","NA","NA","NA","NA","links","links","2","legacy","1024","2","48000","-16","experiment","3","odd","NA","6383.82100004","74636.7986097","74541.7034724","41149.0244527","41148.8360825","NA","NA","6303.53525218","41146.7516916","NA","73798.1302588","NA","NA","NA","NA","NA","NA","NA","74985.2260263","NA","NA","74636.6533541","NA","NA","NA","NA","NA","73778.0403441","NA","Tutorial: Gaze cuing","0","0","0","Human","yes","1024"
"undefined","undefined","undefined","undefined","white","no","psycho","psycho","psycho","0","1","uniform","undefined","undefined","NA","NA","y","0","0","20","20","0","0","NA","NA","0","0","NA","20","NA","NA","NA","NA","NA","NA","NA","20","NA","NA","20","NA","0","NA","0","NA","20","NA","NA","NA","02/13/18 14:56:26","The main experiment item","yes","","Python Experiment.osexp","C:\Users\EfKAy\Desktop","no","mono","no","18","no","black","no","Ok","NA","yes","Female","768","psycho","20","20","0","C:/Users/EfKAy/Desktop/subject-3.csv","psycho","Jazzy James","3.1.9","0","y","space","NA","NA","NA","NA","NA","336.889612487","2553.22331212","NA","NA","NA","NA","NA","NA","NA","rechts","links","2","legacy","1024","2","48000","-16","experiment","3","odd","NA","6383.82100004","76179.6204982","76084.7819961","41149.0244527","41148.8360825","NA","NA","6303.53525218","41146.7516916","NA","75340.905953","NA","NA","NA","NA","NA","NA","NA","76517.2584588","NA","NA","76179.4849948","NA","NA","NA","NA","NA","75332.1690651","NA","Tutorial: Gaze cuing","0","0","0","Human","yes","1024"
"undefined","undefined","undefined","undefined","white","no","psycho","psycho","psycho","0","0","uniform","undefined","undefined","NA","NA","y","0","0","21","21","0","0","NA","NA","0","0","NA","21","NA","NA","NA","NA","NA","NA","NA","21","NA","NA","21","NA","0","NA","0","NA","21","NA","NA","NA","02/13/18 14:56:26","The main experiment item","yes","","Python Experiment.osexp","C:\Users\EfKAy\Desktop","no","mono","no","18","no","black","no","Ok","NA","yes","Female","768","psycho","21","21","0","C:/Users/EfKAy/Desktop/subject-3.csv","psycho","Jazzy James","3.1.9","0","y","space","NA","NA","NA","NA","NA","323.70472378","2553.22331212","NA","NA","NA","NA","NA","NA","NA","links","rechts","2","legacy","1024","2","48000","-16","experiment","3","odd","NA","6383.82100004","77705.7256847","77610.8610059","41149.0244527","41148.8360825","NA","NA","6303.53525218","41146.7516916","NA","76867.0270509","NA","NA","NA","NA","NA","NA","NA","78030.1797832","NA","NA","77705.5886415","NA","NA","NA","NA","NA","76860.5618976","NA","Tutorial: Gaze cuing","0","0","0","Human","yes","1024"
"undefined","undefined","undefined","undefined","white","no","psycho","psycho","psycho","0","1","uniform","undefined","undefined","NA","NA","m","0","0","22","22","0","0","NA","NA","0","0","NA","22","NA","NA","NA","NA","NA","NA","NA","22","NA","NA","22","NA","0","NA","0","NA","22","NA","NA","NA","02/13/18 14:56:26","The main experiment item","yes","","Python Experiment.osexp","C:\Users\EfKAy\Desktop","no","mono","no","18","no","black","no","Ok","NA","yes","Female","768","psycho","22","22","0","C:/Users/EfKAy/Desktop/subject-3.csv","psycho","Jazzy James","3.1.9","0","m","space","NA","NA","NA","NA","NA","433.346969216","2553.22331212","NA","NA","NA","NA","NA","NA","NA","rechts","links","2","legacy","1024","2","48000","-16","experiment","3","odd","NA","6383.82100004","79214.9961171","79136.9436085","41149.0244527","41148.8360825","NA","NA","6303.53525218","41146.7516916","NA","78393.1702194","NA","NA","NA","NA","NA","NA","NA","79649.103753","NA","NA","79214.8642066","NA","NA","NA","NA","NA","78383.0818907","NA","Tutorial: Gaze cuing","0","0","0","Greeble","yes","1024"
"undefined","undefined","undefined","undefined","white","no","psycho","psycho","psycho","0","0","uniform","undefined","undefined","NA","NA","y","0","0","23","23","0","0","NA","NA","0","0","NA","23","NA","NA","NA","NA","NA","NA","NA","23","NA","NA","23","NA","0","NA","0","NA","23","NA","NA","NA","02/13/18 14:56:26","The main experiment item","yes","","Python Experiment.osexp","C:\Users\EfKAy\Desktop","no","mono","no","18","no","black","no","Ok","NA","yes","Female","768","psycho","23","23","0","C:/Users/EfKAy/Desktop/subject-3.csv","psycho","Jazzy James","3.1.9","0","y","space","NA","NA","NA","NA","NA","440.477834163","2553.22331212","NA","NA","NA","NA","NA","NA","NA","rechts","rechts","2","legacy","1024","2","48000","-16","experiment","3","odd","NA","6383.82100004","80875.2527215","80780.1288411","41149.0244527","41148.8360825","NA","NA","6303.53525218","41146.7516916","NA","80036.5941227","NA","NA","NA","NA","NA","NA","NA","81316.4794171","NA","NA","80875.1043864","NA","NA","NA","NA","NA","80016.7161887","NA","Tutorial: Gaze cuing","0","0","0","Human","yes","1024"
"undefined","undefined","undefined","undefined","white","no","psycho","psycho","psycho","0","0","uniform","undefined","undefined","NA","NA","m","0","0","24","24","0","0","NA","NA","0","0","NA","24","NA","NA","NA","NA","NA","NA","NA","24","NA","NA","24","NA","0","NA","0","NA","24","NA","NA","NA","02/13/18 14:56:26","The main experiment item","yes","","Python Experiment.osexp","C:\Users\EfKAy\Desktop","no","mono","no","18","no","black","no","Ok","NA","yes","Female","768","psycho","24","24","0","C:/Users/EfKAy/Desktop/subject-3.csv","psycho","Jazzy James","3.1.9","0","m","space","NA","NA","NA","NA","NA","563.097093813","2553.22331212","NA","NA","NA","NA","NA","NA","NA","links","rechts","2","legacy","1024","2","48000","-16","experiment","3","odd","NA","6383.82100004","82485.2611853","82407.146571","41149.0244527","41148.8360825","NA","NA","6303.53525218","41146.7516916","NA","81663.1822454","NA","NA","NA","NA","NA","NA","NA","83049.1245918","NA","NA","82485.1220891","NA","NA","NA","NA","NA","81651.9606157","NA","Tutorial: Gaze cuing","0","0","0","Greeble","yes","1024"
"undefined","undefined","undefined","undefined","white","no","psycho","psycho","psycho","0","0","uniform","undefined","undefined","NA","NA","m","0","0","25","25","0","0","NA","NA","0","0","NA","25","NA","NA","NA","NA","NA","NA","NA","25","NA","NA","25","NA","0","NA","0","NA","25","NA","NA","NA","02/13/18 14:56:26","The main experiment item","yes","","Python Experiment.osexp","C:\Users\EfKAy\Desktop","no","mono","no","18","no","black","no","Ok","NA","yes","Female","768","psycho","25","25","0","C:/Users/EfKAy/Desktop/subject-3.csv","psycho","Jazzy James","3.1.9","0","y","space","NA","NA","NA","NA","NA","455.334957664","2553.22331212","NA","NA","NA","NA","NA","NA","NA","rechts","rechts","2","legacy","1024","2","48000","-16","experiment","3","odd","NA","6383.82100004","84262.8190553","84184.2512233","41149.0244527","41148.8360825","NA","NA","6303.53525218","41146.7516916","NA","83440.9023087","NA","NA","NA","NA","NA","NA","NA","84718.8987682","NA","NA","84262.6845784","NA","NA","NA","NA","NA","83404.5884316","NA","Tutorial: Gaze cuing","0","0","0","Greeble","yes","1024"
"undefined","undefined","undefined","undefined","white","no","psycho","psycho","psycho","0","0","uniform","undefined","undefined","NA","NA","y","0","0","26","26","0","0","NA","NA","0","0","NA","26","NA","NA","NA","NA","NA","NA","NA","26","NA","NA","26","NA","0","NA","0","NA","26","NA","NA","NA","02/13/18 14:56:26","The main experiment item","yes","","Python Experiment.osexp","C:\Users\EfKAy\Desktop","no","mono","no","18","no","black","no","Ok","NA","yes","Female","768","psycho","26","26","0","C:/Users/EfKAy/Desktop/subject-3.csv","psycho","Jazzy James","3.1.9","0","y","space","NA","NA","NA","NA","NA","328.951886549","2553.22331212","NA","NA","NA","NA","NA","NA","NA","rechts","rechts","2","legacy","1024","2","48000","-16","experiment","3","odd","NA","6383.82100004","85939.8334232","85845.3290602","41149.0244527","41148.8360825","NA","NA","6303.53525218","41146.7516916","NA","85101.1660989","NA","NA","NA","NA","NA","NA","NA","86269.5536755","NA","NA","85939.6866279","NA","NA","NA","NA","NA","85082.854666","NA","Tutorial: Gaze cuing","0","0","0","Human","yes","1024"
"undefined","undefined","undefined","undefined","white","no","psycho","psycho","psycho","0","0","uniform","undefined","undefined","NA","NA","m","0","0","27","27","0","0","NA","NA","0","0","NA","27","NA","NA","NA","NA","NA","NA","NA","27","NA","NA","27","NA","0","NA","0","NA","27","NA","NA","NA","02/13/18 14:56:26","The main experiment item","yes","","Python Experiment.osexp","C:\Users\EfKAy\Desktop","no","mono","no","18","no","black","no","Ok","NA","yes","Female","768","psycho","27","27","0","C:/Users/EfKAy/Desktop/subject-3.csv","psycho","Jazzy James","3.1.9","0","m","space","NA","NA","NA","NA","NA","490.275836617","2553.22331212","NA","NA","NA","NA","NA","NA","NA","rechts","rechts","2","legacy","1024","2","48000","-16","experiment","3","odd","NA","6383.82100004","87482.7353819","87404.4749989","41149.0244527","41148.8360825","NA","NA","6303.53525218","41146.7516916","NA","86660.7632022","NA","NA","NA","NA","NA","NA","NA","87973.7575136","NA","NA","87482.5952591","NA","NA","NA","NA","NA","86637.0003249","NA","Tutorial: Gaze cuing","0","0","0","Greeble","yes","1024"
"undefined","undefined","undefined","undefined","white","no","psycho","psycho","psycho","0","1","uniform","undefined","undefined","NA","NA","y","0","0","28","28","0","0","NA","NA","0","0","NA","28","NA","NA","NA","NA","NA","NA","NA","28","NA","NA","28","NA","0","NA","0","NA","28","NA","NA","NA","02/13/18 14:56:26","The main experiment item","yes","","Python Experiment.osexp","C:\Users\EfKAy\Desktop","no","mono","no","18","no","black","no","Ok","NA","yes","Female","768","psycho","28","28","0","C:/Users/EfKAy/Desktop/subject-3.csv","psycho","Jazzy James","3.1.9","0","m","space","NA","NA","NA","NA","NA","359.418074609","2553.22331212","NA","NA","NA","NA","NA","NA","NA","rechts","links","2","legacy","1024","2","48000","-16","experiment","3","odd","NA","6383.82100004","89209.9891649","89115.5587127","41149.0244527","41148.8360825","NA","NA","6303.53525218","41146.7516916","NA","88371.3259467","NA","NA","NA","NA","NA","NA","NA","89570.1519947","NA","NA","89209.854688","NA","NA","NA","NA","NA","88356.7926968","NA","Tutorial: Gaze cuing","0","0","0","Human","yes","1024"
"undefined","undefined","undefined","undefined","white","no","psycho","psycho","psycho","0","0","uniform","undefined","undefined","NA","NA","m","0","0","29","29","0","0","NA","NA","0","0","NA","29","NA","NA","NA","NA","NA","NA","NA","29","NA","NA","29","NA","0","NA","0","NA","29","NA","NA","NA","02/13/18 14:56:26","The main experiment item","yes","","Python Experiment.osexp","C:\Users\EfKAy\Desktop","no","mono","no","18","no","black","no","Ok","NA","yes","Female","768","psycho","29","29","0","C:/Users/EfKAy/Desktop/subject-3.csv","psycho","Jazzy James","3.1.9","0","y","space","NA","NA","NA","NA","NA","345.15121201","2553.22331212","NA","NA","NA","NA","NA","NA","NA","links","links","2","legacy","1024","2","48000","-16","experiment","3","odd","NA","6383.82100004","90769.6565862","90691.6507852","41149.0244527","41148.8360825","NA","NA","6303.53525218","41146.7516916","NA","89947.7306008","NA","NA","NA","NA","NA","NA","NA","91115.5540933","NA","NA","90769.5092776","NA","NA","NA","NA","NA","89938.2330463","NA","Tutorial: Gaze cuing","0","0","0","Greeble","yes","1024"
"undefined","undefined","undefined","undefined","white","no","psycho","psycho","psycho","0","0","uniform","undefined","undefined","NA","NA","y","0","0","30","30","0","0","NA","NA","0","0","NA","30","NA","NA","NA","NA","NA","NA","NA","30","NA","NA","30","NA","0","NA","0","NA","30","NA","NA","NA","02/13/18 14:56:26","The main experiment item","yes","","Python Experiment.osexp","C:\Users\EfKAy\Desktop","no","mono","no","18","no","black","no","Ok","NA","yes","Female","768","psycho","30","30","0","C:/Users/EfKAy/Desktop/subject-3.csv","psycho","Jazzy James","3.1.9","0","y","space","NA","NA","NA","NA","NA","527.253885584","2553.22331212","NA","NA","NA","NA","NA","NA","NA","links","rechts","2","legacy","1024","2","48000","-16","experiment","3","odd","NA","6383.82100004","92329.2495834","92234.7287956","41149.0244527","41148.8360825","NA","NA","6303.53525218","41146.7516916","NA","91490.5678874","NA","NA","NA","NA","NA","NA","NA","92857.2574631","NA","NA","92329.1145933","NA","NA","NA","NA","NA","91476.6531283","NA","Tutorial: Gaze cuing","0","0","0","Human","yes","1024"
"undefined","undefined","undefined","undefined","white","no","psycho","psycho","psycho","0","0","uniform","undefined","undefined","NA","NA","m","0","0","31","31","0","0","NA","NA","0","0","NA","31","NA","NA","NA","NA","NA","NA","NA","31","NA","NA","31","NA","0","NA","0","NA","31","NA","NA","NA","02/13/18 14:56:26","The main experiment item","yes","","Python Experiment.osexp","C:\Users\EfKAy\Desktop","no","mono","no","18","no","black","no","Ok","NA","yes","Female","768","psycho","31","31","0","C:/Users/EfKAy/Desktop/subject-3.csv","psycho","Jazzy James","3.1.9","0","m","space","NA","NA","NA","NA","NA","454.857102968","2553.22331212","NA","NA","NA","NA","NA","NA","NA","links","rechts","2","legacy","1024","2","48000","-16","experiment","3","odd","NA","6383.82100004","94073.3340143","93994.8077572","41149.0244527","41148.8360825","NA","NA","6303.53525218","41146.7516916","NA","93251.4588426","NA","NA","NA","NA","NA","NA","NA","94528.9338194","NA","NA","94073.1979976","NA","NA","NA","NA","NA","93238.8046755","NA","Tutorial: Gaze cuing","0","0","0","Greeble","yes","1024"
"undefined","undefined","undefined","undefined","white","no","psycho","psycho","psycho","0","0","uniform","undefined","undefined","NA","NA","y","0","0","32","32","1","1","NA","NA","0","0","NA","32","NA","NA","NA","NA","NA","NA","NA","32","NA","NA","32","NA","0","NA","1","NA","32","NA","NA","NA","02/13/18 14:56:26","The main experiment item","yes","","Python Experiment.osexp","C:\Users\EfKAy\Desktop","no","mono","no","18","no","black","no","Ok","NA","yes","Female","768","psycho","0","0","1","C:/Users/EfKAy/Desktop/subject-3.csv","psycho","Jazzy James","3.1.9","0","y","space","NA","NA","NA","NA","NA","361.194503286","2553.22331212","NA","NA","NA","NA","NA","NA","NA","rechts","rechts","2","legacy","1024","2","48000","-16","experiment","3","odd","NA","6383.82100004","95834.150032","95744.1542357","94773.9126239","94773.5420427","NA","NA","6303.53525218","41146.7516916","NA","94995.5966537","NA","NA","NA","NA","NA","NA","NA","96196.0831313","NA","NA","95834.0145286","NA","NA","NA","NA","NA","94978.774218","NA","Tutorial: Gaze cuing","0","0","0","Human","yes","1024"
"undefined","undefined","undefined","undefined","white","no","psycho","psycho","psycho","0","0","uniform","undefined","undefined","NA","NA","y","0","0","33","33","1","1","NA","NA","0","0","NA","33","NA","NA","NA","NA","NA","NA","NA","33","NA","NA","33","NA","0","NA","1","NA","33","NA","NA","NA","02/13/18 14:56:26","The main experiment item","yes","","Python Experiment.osexp","C:\Users\EfKAy\Desktop","no","mono","no","18","no","black","no","Ok","NA","yes","Female","768","psycho","1","1","1","C:/Users/EfKAy/Desktop/subject-3.csv","psycho","Jazzy James","3.1.9","0","y","space","NA","NA","NA","NA","NA","478.301239395","2553.22331212","NA","NA","NA","NA","NA","NA","NA","links","rechts","2","legacy","1024","2","48000","-16","experiment","3","odd","NA","6383.82100004","97461.145178","97365.9971739","94773.9126239","94773.5420427","NA","NA","6303.53525218","41146.7516916","NA","96622.2160858","NA","NA","NA","NA","NA","NA","NA","97940.2040044","NA","NA","97460.9958163","NA","NA","NA","NA","NA","96605.2442885","NA","Tutorial: Gaze cuing","0","0","0","Human","yes","1024"
"undefined","undefined","undefined","undefined","white","no","psycho","psycho","psycho","0","0","uniform","undefined","undefined","NA","NA","y","0","0","34","34","1","1","NA","NA","0","0","NA","34","NA","NA","NA","NA","NA","NA","NA","34","NA","NA","34","NA","0","NA","1","NA","34","NA","NA","NA","02/13/18 14:56:26","The main experiment item","yes","","Python Experiment.osexp","C:\Users\EfKAy\Desktop","no","mono","no","18","no","black","no","Ok","NA","yes","Female","768","psycho","2","2","1","C:/Users/EfKAy/Desktop/subject-3.csv","psycho","Jazzy James","3.1.9","0","y","space","NA","NA","NA","NA","NA","406.102065863","2553.22331212","NA","NA","NA","NA","NA","NA","NA","links","links","2","legacy","1024","2","48000","-16","experiment","3","odd","NA","6383.82100004","99171.4153584","99077.1178433","94773.9126239","94773.5420427","NA","NA","6303.53525218","41146.7516916","NA","98333.1709688","NA","NA","NA","NA","NA","NA","NA","99578.2514008","NA","NA","99171.2803683","NA","NA","NA","NA","NA","98311.4770843","NA","Tutorial: Gaze cuing","0","0","0","Human","yes","1024"
"undefined","undefined","undefined","undefined","white","no","psycho","psycho","psycho","0","0","uniform","undefined","undefined","NA","NA","m","0","0","35","35","1","1","NA","NA","0","0","NA","35","NA","NA","NA","NA","NA","NA","NA","35","NA","NA","35","NA","0","NA","1","NA","35","NA","NA","NA","02/13/18 14:56:26","The main experiment item","yes","","Python Experiment.osexp","C:\Users\EfKAy\Desktop","no","mono","no","18","no","black","no","Ok","NA","yes","Female","768","psycho","3","3","1","C:/Users/EfKAy/Desktop/subject-3.csv","psycho","Jazzy James","3.1.9","0","m","space","NA","NA","NA","NA","NA","342.918485996","2553.22331212","NA","NA","NA","NA","NA","NA","NA","links","rechts","2","legacy","1024","2","48000","-16","experiment","3","odd","NA","6383.82100004","100781.451026","100703.21374","94773.9126239","94773.5420427","NA","NA","6303.53525218","41146.7516916","NA","99959.5188809","NA","NA","NA","NA","NA","NA","NA","101125.102975","NA","NA","100781.315009","NA","NA","NA","NA","NA","99939.2257111","NA","Tutorial: Gaze cuing","0","0","0","Greeble","yes","1024"
"undefined","undefined","undefined","undefined","white","no","psycho","psycho","psycho","0","1","uniform","undefined","undefined","NA","NA","y","0","0","36","36","1","1","NA","NA","0","0","NA","36","NA","NA","NA","NA","NA","NA","NA","36","NA","NA","36","NA","0","NA","1","NA","36","NA","NA","NA","02/13/18 14:56:26","The main experiment item","yes","","Python Experiment.osexp","C:\Users\EfKAy\Desktop","no","mono","no","18","no","black","no","Ok","NA","yes","Female","768","psycho","4","4","1","C:/Users/EfKAy/Desktop/subject-3.csv","psycho","Jazzy James","3.1.9","0","y","space","NA","NA","NA","NA","NA","394.910719189","2553.22331212","NA","NA","NA","NA","NA","NA","NA","rechts","links","2","legacy","1024","2","48000","-16","experiment","3","odd","NA","6383.82100004","102374.524647","102279.277069","94773.9126239","94773.5420427","NA","NA","6303.53525218","41146.7516916","NA","101535.862456","NA","NA","NA","NA","NA","NA","NA","102770.180635","NA","NA","102374.389657","NA","NA","NA","NA","NA","101514.029988","NA","Tutorial: Gaze cuing","0","0","0","Human","yes","1024"
"undefined","undefined","undefined","undefined","white","no","psycho","psycho","psycho","0","1","uniform","undefined","undefined","NA","NA","y","0","0","37","37","1","1","NA","NA","0","0","NA","37","NA","NA","NA","NA","NA","NA","NA","37","NA","NA","37","NA","0","NA","1","NA","37","NA","NA","NA","02/13/18 14:56:26","The main experiment item","yes","","Python Experiment.osexp","C:\Users\EfKAy\Desktop","no","mono","no","18","no","black","no","Ok","NA","yes","Female","768","psycho","5","5","1","C:/Users/EfKAy/Desktop/subject-3.csv","psycho","Jazzy James","3.1.9","0","y","space","NA","NA","NA","NA","NA","405.210001998","2553.22331212","NA","NA","NA","NA","NA","NA","NA","rechts","links","2","legacy","1024","2","48000","-16","experiment","3","odd","NA","6383.82100004","104001.22569","103906.481629","94773.9126239","94773.5420427","NA","NA","6303.53525218","41146.7516916","NA","103162.633816","NA","NA","NA","NA","NA","NA","NA","104407.174801","NA","NA","104001.091726","NA","NA","NA","NA","NA","103140.671491","NA","Tutorial: Gaze cuing","0","0","0","Human","yes","1024"
"undefined","undefined","undefined","undefined","white","no","psycho","psycho","psycho","0","1","uniform","undefined","undefined","NA","NA","y","0","0","38","38","1","1","NA","NA","0","0","NA","38","NA","NA","NA","NA","NA","NA","NA","38","NA","NA","38","NA","0","NA","1","NA","38","NA","NA","NA","02/13/18 14:56:26","The main experiment item","yes","","Python Experiment.osexp","C:\Users\EfKAy\Desktop","no","mono","no","18","no","black","no","Ok","NA","yes","Female","768","psycho","6","6","1","C:/Users/EfKAy/Desktop/subject-3.csv","psycho","Jazzy James","3.1.9","0","y","space","NA","NA","NA","NA","NA","472.855440999","2553.22331212","NA","NA","NA","NA","NA","NA","NA","rechts","links","2","legacy","1024","2","48000","-16","experiment","3","odd","NA","6383.82100004","105661.466896","105566.455422","94773.9126239","94773.5420427","NA","NA","6303.53525218","41146.7516916","NA","104822.832934","NA","NA","NA","NA","NA","NA","NA","106135.069658","NA","NA","105661.314968","NA","NA","NA","NA","NA","104799.80198","NA","Tutorial: Gaze cuing","0","0","0","Human","yes","1024"
"undefined","undefined","undefined","undefined","white","no","psycho","psycho","psycho","0","0","uniform","undefined","undefined","NA","NA","m","0","0","39","39","1","1","NA","NA","0","0","NA","39","NA","NA","NA","NA","NA","NA","NA","39","NA","NA","39","NA","0","NA","1","NA","39","NA","NA","NA","02/13/18 14:56:26","The main experiment item","yes","","Python Experiment.osexp","C:\Users\EfKAy\Desktop","no","mono","no","18","no","black","no","Ok","NA","yes","Female","768","psycho","7","7","1","C:/Users/EfKAy/Desktop/subject-3.csv","psycho","Jazzy James","3.1.9","0","m","space","NA","NA","NA","NA","NA","477.607811154","2553.22331212","NA","NA","NA","NA","NA","NA","NA","rechts","rechts","2","legacy","1024","2","48000","-16","experiment","3","odd","NA","6383.82100004","107355.263664","107262.508527","94773.9126239","94773.5420427","NA","NA","6303.53525218","41146.7516916","NA","106516.588128","NA","NA","NA","NA","NA","NA","NA","107833.630602","NA","NA","107355.114816","NA","NA","NA","NA","NA","106496.967342","NA","Tutorial: Gaze cuing","0","0","0","Greeble","yes","1024"
"undefined","undefined","undefined","undefined","white","no","psycho","psycho","psycho","0","0","uniform","undefined","undefined","NA","NA","y","0","0","40","40","1","1","NA","NA","0","0","NA","40","NA","NA","NA","NA","NA","NA","NA","40","NA","NA","40","NA","0","NA","1","NA","40","NA","NA","NA","02/13/18 14:56:26","The main experiment item","yes","","Python Experiment.osexp","C:\Users\EfKAy\Desktop","no","mono","no","18","no","black","no","Ok","NA","yes","Female","768","psycho","8","8","1","C:/Users/EfKAy/Desktop/subject-3.csv","psycho","Jazzy James","3.1.9","0","y","space","NA","NA","NA","NA","NA","417.74355063","2553.22331212","NA","NA","NA","NA","NA","NA","NA","rechts","rechts","2","legacy","1024","2","48000","-16","experiment","3","odd","NA","6383.82100004","109015.466889","108920.722315","94773.9126239","94773.5420427","NA","NA","6303.53525218","41146.7516916","NA","108176.825741","NA","NA","NA","NA","NA","NA","NA","109433.987531","NA","NA","109015.333438","NA","NA","NA","NA","NA","108167.989279","NA","Tutorial: Gaze cuing","0","0","0","Human","yes","1024"
"undefined","undefined","undefined","undefined","white","no","psycho","psycho","psycho","0","0","uniform","undefined","undefined","NA","NA","m","0","0","41","41","1","1","NA","NA","0","0","NA","41","NA","NA","NA","NA","NA","NA","NA","41","NA","NA","41","NA","0","NA","1","NA","41","NA","NA","NA","02/13/18 14:56:26","The main experiment item","yes","","Python Experiment.osexp","C:\Users\EfKAy\Desktop","no","mono","no","18","no","black","no","Ok","NA","yes","Female","768","psycho","9","9","1","C:/Users/EfKAy/Desktop/subject-3.csv","psycho","Jazzy James","3.1.9","0","m","space","NA","NA","NA","NA","NA","278.723763544","2553.22331212","NA","NA","NA","NA","NA","NA","NA","links","links","2","legacy","1024","2","48000","-16","experiment","3","odd","NA","6383.82100004","110625.49537","110547.736965","94773.9126239","94773.5420427","NA","NA","6303.53525218","41146.7516916","NA","109803.502146","NA","NA","NA","NA","NA","NA","NA","110905.00495","NA","NA","110625.346008","NA","NA","NA","NA","NA","109794.740621","NA","Tutorial: Gaze cuing","0","0","0","Greeble","yes","1024"
"undefined","undefined","undefined","undefined","white","no","psycho","psycho","psycho","0","1","uniform","undefined","undefined","NA","NA","m","0","0","42","42","1","1","NA","NA","0","0","NA","42","NA","NA","NA","NA","NA","NA","NA","42","NA","NA","42","NA","0","NA","1","NA","42","NA","NA","NA","02/13/18 14:56:26","The main experiment item","yes","","Python Experiment.osexp","C:\Users\EfKAy\Desktop","no","mono","no","18","no","black","no","Ok","NA","yes","Female","768","psycho","10","10","1","C:/Users/EfKAy/Desktop/subject-3.csv","psycho","Jazzy James","3.1.9","0","y","space","NA","NA","NA","NA","NA","468.012735264","2553.22331212","NA","NA","NA","NA","NA","NA","NA","rechts","links","2","legacy","1024","2","48000","-16","experiment","3","odd","NA","6383.82100004","112068.683785","111989.874716","94773.9126239","94773.5420427","NA","NA","6303.53525218","41146.7516916","NA","111245.742038","NA","NA","NA","NA","NA","NA","NA","112537.579858","NA","NA","112068.523645","NA","NA","NA","NA","NA","111228.111714","NA","Tutorial: Gaze cuing","0","0","0","Greeble","yes","1024"
"undefined","undefined","undefined","undefined","white","no","psycho","psycho","psycho","0","0","uniform","undefined","undefined","NA","NA","m","0","0","43","43","1","1","NA","NA","0","0","NA","43","NA","NA","NA","NA","NA","NA","NA","43","NA","NA","43","NA","0","NA","1","NA","43","NA","NA","NA","02/13/18 14:56:26","The main experiment item","yes","","Python Experiment.osexp","C:\Users\EfKAy\Desktop","no","mono","no","18","no","black","no","Ok","NA","yes","Female","768","psycho","11","11","1","C:/Users/EfKAy/Desktop/subject-3.csv","psycho","Jazzy James","3.1.9","0","m","space","NA","NA","NA","NA","NA","363.884039909","2553.22331212","NA","NA","NA","NA","NA","NA","NA","links","rechts","2","legacy","1024","2","48000","-16","experiment","3","odd","NA","6383.82100004","113694.339809","113615.952648","94773.9126239","94773.5420427","NA","NA","6303.53525218","41146.7516916","NA","112872.452318","NA","NA","NA","NA","NA","NA","NA","114058.978356","NA","NA","113694.202765","NA","NA","NA","NA","NA","112855.781811","NA","Tutorial: Gaze cuing","0","0","0","Greeble","yes","1024"
"undefined","undefined","undefined","undefined","white","no","psycho","psycho","psycho","0","0","uniform","undefined","undefined","NA","NA","m","0","0","44","44","1","1","NA","NA","0","0","NA","44","NA","NA","NA","NA","NA","NA","NA","44","NA","NA","44","NA","0","NA","1","NA","44","NA","NA","NA","02/13/18 14:56:26","The main experiment item","yes","","Python Experiment.osexp","C:\Users\EfKAy\Desktop","no","mono","no","18","no","black","no","Ok","NA","yes","Female","768","psycho","12","12","1","C:/Users/EfKAy/Desktop/subject-3.csv","psycho","Jazzy James","3.1.9","0","m","space","NA","NA","NA","NA","NA","609.839597882","2553.22331212","NA","NA","NA","NA","NA","NA","NA","rechts","rechts","2","legacy","1024","2","48000","-16","experiment","3","odd","NA","6383.82100004","115287.501713","115210.049217","94773.9126239","94773.5420427","NA","NA","6303.53525218","41146.7516916","NA","114465.711231","NA","NA","NA","NA","NA","NA","NA","115898.112756","NA","NA","115287.36621","NA","NA","NA","NA","NA","114445.29539","NA","Tutorial: Gaze cuing","0","0","0","Greeble","yes","1024"
"undefined","undefined","undefined","undefined","white","no","psycho","psycho","psycho","0","1","uniform","undefined","undefined","NA","NA","m","0","0","45","45","1","1","NA","NA","0","0","NA","45","NA","NA","NA","NA","NA","NA","NA","45","NA","NA","45","NA","0","NA","1","NA","45","NA","NA","NA","02/13/18 14:56:26","The main experiment item","yes","","Python Experiment.osexp","C:\Users\EfKAy\Desktop","no","mono","no","18","no","black","no","Ok","NA","yes","Female","768","psycho","13","13","1","C:/Users/EfKAy/Desktop/subject-3.csv","psycho","Jazzy James","3.1.9","0","m","space","NA","NA","NA","NA","NA","335.603356994","2553.22331212","NA","NA","NA","NA","NA","NA","NA","rechts","links","2","legacy","1024","2","48000","-16","experiment","3","odd","NA","6383.82100004","117098.68341","117020.130976","94773.9126239","94773.5420427","NA","NA","6303.53525218","41146.7516916","NA","116276.781035","NA","NA","NA","NA","NA","NA","NA","117435.046921","NA","NA","117098.535588","NA","NA","NA","NA","NA","116265.135444","NA","Tutorial: Gaze cuing","0","0","0","Greeble","yes","1024"
"undefined","undefined","undefined","undefined","white","no","psycho","psycho","psycho","0","0","uniform","undefined","undefined","NA","NA","y","0","0","46","46","1","1","NA","NA","0","0","NA","46","NA","NA","NA","NA","NA","NA","NA","46","NA","NA","46","NA","0","NA","1","NA","46","NA","NA","NA","02/13/18 14:56:26","The main experiment item","yes","","Python Experiment.osexp","C:\Users\EfKAy\Desktop","no","mono","no","18","no","black","no","Ok","NA","yes","Female","768","psycho","14","14","1","C:/Users/EfKAy/Desktop/subject-3.csv","psycho","Jazzy James","3.1.9","0","y","space","NA","NA","NA","NA","NA","354.354662624","2553.22331212","NA","NA","NA","NA","NA","NA","NA","links","rechts","2","legacy","1024","2","48000","-16","experiment","3","odd","NA","6383.82100004","118641.523263","118547.225235","94773.9126239","94773.5420427","NA","NA","6303.53525218","41146.7516916","NA","117802.936009","NA","NA","NA","NA","NA","NA","NA","118996.617548","NA","NA","118641.387247","NA","NA","NA","NA","NA","117786.533942","NA","Tutorial: Gaze cuing","0","0","0","Human","yes","1024"
"undefined","undefined","undefined","undefined","white","no","psycho","psycho","psycho","0","1","uniform","undefined","undefined","NA","NA","y","0","0","47","47","1","1","NA","NA","0","0","NA","47","NA","NA","NA","NA","NA","NA","NA","47","NA","NA","47","NA","0","NA","1","NA","47","NA","NA","NA","02/13/18 14:56:26","The main experiment item","yes","","Python Experiment.osexp","C:\Users\EfKAy\Desktop","no","mono","no","18","no","black","no","Ok","NA","yes","Female","768","psycho","15","15","1","C:/Users/EfKAy/Desktop/subject-3.csv","psycho","Jazzy James","3.1.9","0","y","space","NA","NA","NA","NA","NA","410.585995623","2553.22331212","NA","NA","NA","NA","NA","NA","NA","rechts","links","2","legacy","1024","2","48000","-16","experiment","3","odd","NA","6383.82100004","120167.569424","120073.323236","94773.9126239","94773.5420427","NA","NA","6303.53525218","41146.7516916","NA","119329.004753","NA","NA","NA","NA","NA","NA","NA","120578.901201","NA","NA","120167.436487","NA","NA","NA","NA","NA","119319.906523","NA","Tutorial: Gaze cuing","0","0","0","Human","yes","1024"
"undefined","undefined","undefined","undefined","white","no","psycho","psycho","psycho","0","0","uniform","undefined","undefined","NA","NA","m","0","0","48","48","1","1","NA","NA","0","0","NA","48","NA","NA","NA","NA","NA","NA","NA","48","NA","NA","48","NA","0","NA","1","NA","48","NA","NA","NA","02/13/18 14:56:26","The main experiment item","yes","","Python Experiment.osexp","C:\Users\EfKAy\Desktop","no","mono","no","18","no","black","no","Ok","NA","yes","Female","768","psycho","16","16","1","C:/Users/EfKAy/Desktop/subject-3.csv","psycho","Jazzy James","3.1.9","0","m","space","NA","NA","NA","NA","NA","370.827561181","2553.22331212","NA","NA","NA","NA","NA","NA","NA","links","links","2","legacy","1024","2","48000","-16","experiment","3","odd","NA","6383.82100004","121727.244544","121649.411202","94773.9126239","94773.5420427","NA","NA","6303.53525218","41146.7516916","NA","120905.344222","NA","NA","NA","NA","NA","NA","NA","122098.814807","NA","NA","121727.110067","NA","NA","NA","NA","NA","120893.932683","NA","Tutorial: Gaze cuing","0","0","0","Greeble","yes","1024"
"undefined","undefined","undefined","undefined","white","no","psycho","psycho","psycho","0","0","uniform","undefined","undefined","NA","NA","m","0","0","49","49","1","1","NA","NA","0","0","NA","49","NA","NA","NA","NA","NA","NA","NA","49","NA","NA","49","NA","0","NA","1","NA","49","NA","NA","NA","02/13/18 14:56:26","The main experiment item","yes","","Python Experiment.osexp","C:\Users\EfKAy\Desktop","no","mono","no","18","no","black","no","Ok","NA","yes","Female","768","psycho","17","17","1","C:/Users/EfKAy/Desktop/subject-3.csv","psycho","Jazzy James","3.1.9","0","m","space","NA","NA","NA","NA","NA","332.16598547","2553.22331212","NA","NA","NA","NA","NA","NA","NA","links","rechts","2","legacy","1024","2","48000","-16","experiment","3","odd","NA","6383.82100004","123320.380785","123242.469426","94773.9126239","94773.5420427","NA","NA","6303.53525218","41146.7516916","NA","122498.683205","NA","NA","NA","NA","NA","NA","NA","123653.278694","NA","NA","123320.239122","NA","NA","NA","NA","NA","122475.683561","NA","Tutorial: Gaze cuing","0","0","0","Greeble","yes","1024"
"undefined","undefined","undefined","undefined","white","no","psycho","psycho","psycho","0","0","uniform","undefined","undefined","NA","NA","y","0","0","50","50","1","1","NA","NA","0","0","NA","50","NA","NA","NA","NA","NA","NA","NA","50","NA","NA","50","NA","0","NA","1","NA","50","NA","NA","NA","02/13/18 14:56:26","The main experiment item","yes","","Python Experiment.osexp","C:\Users\EfKAy\Desktop","no","mono","no","18","no","black","no","Ok","NA","yes","Female","768","psycho","18","18","1","C:/Users/EfKAy/Desktop/subject-3.csv","psycho","Jazzy James","3.1.9","0","m","space","NA","NA","NA","NA","NA","325.209119172","2553.22331212","NA","NA","NA","NA","NA","NA","NA","links","links","2","legacy","1024","2","48000","-16","experiment","3","odd","NA","6383.82100004","124863.239629","124768.56486","94773.9126239","94773.5420427","NA","NA","6303.53525218","41146.7516916","NA","124024.573331","NA","NA","NA","NA","NA","NA","NA","125189.199663","NA","NA","124863.103612","NA","NA","NA","NA","NA","124011.407433","NA","Tutorial: Gaze cuing","0","0","0","Human","yes","1024"
"undefined","undefined","undefined","undefined","white","no","psycho","psycho","psycho","0","0","uniform","undefined","undefined","NA","NA","m","0","0","51","51","1","1","NA","NA","0","0","NA","51","NA","NA","NA","NA","NA","NA","NA","51","NA","NA","51","NA","0","NA","1","NA","51","NA","NA","NA","02/13/18 14:56:26","The main experiment item","yes","","Python Experiment.osexp","C:\Users\EfKAy\Desktop","no","mono","no","18","no","black","no","Ok","NA","yes","Female","768","psycho","19","19","1","C:/Users/EfKAy/Desktop/subject-3.csv","psycho","Jazzy James","3.1.9","0","m","space","NA","NA","NA","NA","NA","469.826119404","2553.22331212","NA","NA","NA","NA","NA","NA","NA","links","links","2","legacy","1024","2","48000","-16","experiment","3","odd","NA","6383.82100004","126339.000693","126260.701815","94773.9126239","94773.5420427","NA","NA","6303.53525218","41146.7516916","NA","125517.114743","NA","NA","NA","NA","NA","NA","NA","126809.564896","NA","NA","126338.86673","NA","NA","NA","NA","NA","125507.704958","NA","Tutorial: Gaze cuing","0","0","0","Greeble","yes","1024"
"undefined","undefined","undefined","undefined","white","no","psycho","psycho","psycho","0","0","uniform","undefined","undefined","NA","NA","y","0","0","52","52","1","1","NA","NA","0","0","NA","52","NA","NA","NA","NA","NA","NA","NA","52","NA","NA","52","NA","0","NA","1","NA","52","NA","NA","NA","02/13/18 14:56:26","The main experiment item","yes","","Python Experiment.osexp","C:\Users\EfKAy\Desktop","no","mono","no","18","no","black","no","Ok","NA","yes","Female","768","psycho","20","20","1","C:/Users/EfKAy/Desktop/subject-3.csv","psycho","Jazzy James","3.1.9","0","y","space","NA","NA","NA","NA","NA","337.785782513","2553.22331212","NA","NA","NA","NA","NA","NA","NA","rechts","rechts","2","legacy","1024","2","48000","-16","experiment","3","odd","NA","6383.82100004","128016.076654","127920.766456","94773.9126239","94773.5420427","NA","NA","6303.53525218","41146.7516916","NA","127177.323613","NA","NA","NA","NA","NA","NA","NA","128354.610271","NA","NA","128015.928319","NA","NA","NA","NA","NA","127168.311613","NA","Tutorial: Gaze cuing","0","0","0","Human","yes","1024"
"undefined","undefined","undefined","undefined","white","no","psycho","psycho","psycho","0","0","uniform","undefined","undefined","NA","NA","y","0","0","53","53","1","1","NA","NA","0","0","NA","53","NA","NA","NA","NA","NA","NA","NA","53","NA","NA","53","NA","0","NA","1","NA","53","NA","NA","NA","02/13/18 14:56:26","The main experiment item","yes","","Python Experiment.osexp","C:\Users\EfKAy\Desktop","no","mono","no","18","no","black","no","Ok","NA","yes","Female","768","psycho","21","21","1","C:/Users/EfKAy/Desktop/subject-3.csv","psycho","Jazzy James","3.1.9","0","y","space","NA","NA","NA","NA","NA","354.962887986","2553.22331212","NA","NA","NA","NA","NA","NA","NA","links","links","2","legacy","1024","2","48000","-16","experiment","3","odd","NA","6383.82100004","129575.656306","129480.844494","94773.9126239","94773.5420427","NA","NA","6303.53525218","41146.7516916","NA","128737.030557","NA","NA","NA","NA","NA","NA","NA","129931.399365","NA","NA","129575.508997","NA","NA","NA","NA","NA","128723.523334","NA","Tutorial: Gaze cuing","0","0","0","Human","yes","1024"
"undefined","undefined","undefined","undefined","white","no","psycho","psycho","psycho","0","1","uniform","undefined","undefined","NA","NA","m","0","0","54","54","1","1","NA","NA","0","0","NA","54","NA","NA","NA","NA","NA","NA","NA","54","NA","NA","54","NA","0","NA","1","NA","54","NA","NA","NA","02/13/18 14:56:26","The main experiment item","yes","","Python Experiment.osexp","C:\Users\EfKAy\Desktop","no","mono","no","18","no","black","no","Ok","NA","yes","Female","768","psycho","22","22","1","C:/Users/EfKAy/Desktop/subject-3.csv","psycho","Jazzy James","3.1.9","0","m","space","NA","NA","NA","NA","NA","392.162669745","2553.22331212","NA","NA","NA","NA","NA","NA","NA","rechts","links","2","legacy","1024","2","48000","-16","experiment","3","odd","NA","6383.82100004","131152.073279","131056.933487","94773.9126239","94773.5420427","NA","NA","6303.53525218","41146.7516916","NA","130313.413653","NA","NA","NA","NA","NA","NA","NA","131545.004827","NA","NA","131151.925457","NA","NA","NA","NA","NA","130290.57261","NA","Tutorial: Gaze cuing","0","0","0","Greeble","yes","1024"
"undefined","undefined","undefined","undefined","white","no","psycho","psycho","psycho","0","0","uniform","undefined","undefined","NA","NA","m","0","0","55","55","1","1","NA","NA","0","0","NA","55","NA","NA","NA","NA","NA","NA","NA","55","NA","NA","55","NA","0","NA","1","NA","55","NA","NA","NA","02/13/18 14:56:26","The main experiment item","yes","","Python Experiment.osexp","C:\Users\EfKAy\Desktop","no","mono","no","18","no","black","no","Ok","NA","yes","Female","768","psycho","23","23","1","C:/Users/EfKAy/Desktop/subject-3.csv","psycho","Jazzy James","3.1.9","0","m","space","NA","NA","NA","NA","NA","392.75806335","2553.22331212","NA","NA","NA","NA","NA","NA","NA","rechts","rechts","2","legacy","1024","2","48000","-16","experiment","3","odd","NA","6383.82100004","132745.207466","132667.024074","94773.9126239","94773.5420427","NA","NA","6303.53525218","41146.7516916","NA","131923.348206","NA","NA","NA","NA","NA","NA","NA","133138.712338","NA","NA","132745.063237","NA","NA","NA","NA","NA","131911.023045","NA","Tutorial: Gaze cuing","0","0","0","Greeble","yes","1024"
"undefined","undefined","undefined","undefined","white","no","psycho","psycho","psycho","0","0","uniform","undefined","undefined","NA","NA","y","0","0","56","56","1","1","NA","NA","0","0","NA","56","NA","NA","NA","NA","NA","NA","NA","56","NA","NA","56","NA","0","NA","1","NA","56","NA","NA","NA","02/13/18 14:56:26","The main experiment item","yes","","Python Experiment.osexp","C:\Users\EfKAy\Desktop","no","mono","no","18","no","black","no","Ok","NA","yes","Female","768","psycho","24","24","1","C:/Users/EfKAy/Desktop/subject-3.csv","psycho","Jazzy James","3.1.9","0","y","space","NA","NA","NA","NA","NA","434.822108196","2553.22331212","NA","NA","NA","NA","NA","NA","NA","links","rechts","2","legacy","1024","2","48000","-16","experiment","3","odd","NA","6383.82100004","134355.140993","134260.184439","94773.9126239","94773.5420427","NA","NA","6303.53525218","41146.7516916","NA","133516.48496","NA","NA","NA","NA","NA","NA","NA","134790.764316","NA","NA","134355.002923","NA","NA","NA","NA","NA","133486.481742","NA","Tutorial: Gaze cuing","0","0","0","Human","yes","1024"
"undefined","undefined","undefined","undefined","white","no","psycho","psycho","psycho","0","0","uniform","undefined","undefined","NA","NA","m","0","0","57","57","1","1","NA","NA","0","0","NA","57","NA","NA","NA","NA","NA","NA","NA","57","NA","NA","57","NA","0","NA","1","NA","57","NA","NA","NA","02/13/18 14:56:26","The main experiment item","yes","","Python Experiment.osexp","C:\Users\EfKAy\Desktop","no","mono","no","18","no","black","no","Ok","NA","yes","Female","768","psycho","25","25","1","C:/Users/EfKAy/Desktop/subject-3.csv","psycho","Jazzy James","3.1.9","0","m","space","NA","NA","NA","NA","NA","390.535602741","2553.22331212","NA","NA","NA","NA","NA","NA","NA","rechts","rechts","2","legacy","1024","2","48000","-16","experiment","3","odd","NA","6383.82100004","135948.27826","135870.21446","94773.9126239","94773.5420427","NA","NA","6303.53525218","41146.7516916","NA","135126.385124","NA","NA","NA","NA","NA","NA","NA","136339.607892","NA","NA","135948.14327","NA","NA","NA","NA","NA","135119.275817","NA","Tutorial: Gaze cuing","0","0","0","Greeble","yes","1024"
"undefined","undefined","undefined","undefined","white","no","psycho","psycho","psycho","0","0","uniform","undefined","undefined","NA","NA","y","0","0","58","58","1","1","NA","NA","0","0","NA","58","NA","NA","NA","NA","NA","NA","NA","58","NA","NA","58","NA","0","NA","1","NA","58","NA","NA","NA","02/13/18 14:56:26","The main experiment item","yes","","Python Experiment.osexp","C:\Users\EfKAy\Desktop","no","mono","no","18","no","black","no","Ok","NA","yes","Female","768","psycho","26","26","1","C:/Users/EfKAy/Desktop/subject-3.csv","psycho","Jazzy James","3.1.9","0","y","space","NA","NA","NA","NA","NA","321.206123725","2553.22331212","NA","NA","NA","NA","NA","NA","NA","links","links","2","legacy","1024","2","48000","-16","experiment","3","odd","NA","6383.82100004","137558.192796","137463.30502","94773.9126239","94773.5420427","NA","NA","6303.53525218","41146.7516916","NA","136719.534197","NA","NA","NA","NA","NA","NA","NA","137880.12879","NA","NA","137558.057806","NA","NA","NA","NA","NA","136697.56366","NA","Tutorial: Gaze cuing","0","0","0","Human","yes","1024"
"undefined","undefined","undefined","undefined","white","no","psycho","psycho","psycho","0","0","uniform","undefined","undefined","NA","NA","y","0","0","59","59","1","1","NA","NA","0","0","NA","59","NA","NA","NA","NA","NA","NA","NA","59","NA","NA","59","NA","0","NA","1","NA","59","NA","NA","NA","02/13/18 14:56:26","The main experiment item","yes","","Python Experiment.osexp","C:\Users\EfKAy\Desktop","no","mono","no","18","no","black","no","Ok","NA","yes","Female","768","psycho","27","27","1","C:/Users/EfKAy/Desktop/subject-3.csv","psycho","Jazzy James","3.1.9","0","y","space","NA","NA","NA","NA","NA","367.691992624","2553.22331212","NA","NA","NA","NA","NA","NA","NA","rechts","rechts","2","legacy","1024","2","48000","-16","experiment","3","odd","NA","6383.82100004","139067.96264","138972.412745","94773.9126239","94773.5420427","NA","NA","6303.53525218","41146.7516916","NA","138228.949372","NA","NA","NA","NA","NA","NA","NA","139436.533352","NA","NA","139067.792748","NA","NA","NA","NA","NA","138208.969297","NA","Tutorial: Gaze cuing","0","0","0","Human","yes","1024"
"undefined","undefined","undefined","undefined","white","no","psycho","psycho","psycho","0","0","uniform","undefined","undefined","NA","NA","m","0","0","60","60","1","1","NA","NA","0","0","NA","60","NA","NA","NA","NA","NA","NA","NA","60","NA","NA","60","NA","0","NA","1","NA","60","NA","NA","NA","02/13/18 14:56:26","The main experiment item","yes","","Python Experiment.osexp","C:\Users\EfKAy\Desktop","no","mono","no","18","no","black","no","Ok","NA","yes","Female","768","psycho","28","28","1","C:/Users/EfKAy/Desktop/subject-3.csv","psycho","Jazzy James","3.1.9","0","m","space","NA","NA","NA","NA","NA","434.556234155","2553.22331212","NA","NA","NA","NA","NA","NA","NA","links","links","2","legacy","1024","2","48000","-16","experiment","3","odd","NA","6383.82100004","140627.136809","140549.471306","94773.9126239","94773.5420427","NA","NA","6303.53525218","41146.7516916","NA","139805.337601","NA","NA","NA","NA","NA","NA","NA","141062.567655","NA","NA","140627.001819","NA","NA","NA","NA","NA","139787.210432","NA","Tutorial: Gaze cuing","0","0","0","Greeble","yes","1024"
"undefined","undefined","undefined","undefined","white","no","psycho","psycho","psycho","0","0","uniform","undefined","undefined","NA","NA","m","0","0","61","61","1","1","NA","NA","0","0","NA","61","NA","NA","NA","NA","NA","NA","NA","61","NA","NA","61","NA","0","NA","1","NA","61","NA","NA","NA","02/13/18 14:56:26","The main experiment item","yes","","Python Experiment.osexp","C:\Users\EfKAy\Desktop","no","mono","no","18","no","black","no","Ok","NA","yes","Female","768","psycho","29","29","1","C:/Users/EfKAy/Desktop/subject-3.csv","psycho","Jazzy James","3.1.9","0","m","space","NA","NA","NA","NA","NA","407.350339348","2553.22331212","NA","NA","NA","NA","NA","NA","NA","links","rechts","2","legacy","1024","2","48000","-16","experiment","3","odd","NA","6383.82100004","142220.318217","142142.587016","94773.9126239","94773.5420427","NA","NA","6303.53525218","41146.7516916","NA","141398.453824","NA","NA","NA","NA","NA","NA","NA","142628.405613","NA","NA","142220.18528","NA","NA","NA","NA","NA","141385.99778","NA","Tutorial: Gaze cuing","0","0","0","Greeble","yes","1024"
"undefined","undefined","undefined","undefined","white","no","psycho","psycho","psycho","0","0","uniform","undefined","undefined","NA","NA","y","0","0","62","62","1","1","NA","NA","0","0","NA","62","NA","NA","NA","NA","NA","NA","NA","62","NA","NA","62","NA","0","NA","1","NA","62","NA","NA","NA","02/13/18 14:56:26","The main experiment item","yes","","Python Experiment.osexp","C:\Users\EfKAy\Desktop","no","mono","no","18","no","black","no","Ok","NA","yes","Female","768","psycho","30","30","1","C:/Users/EfKAy/Desktop/subject-3.csv","psycho","Jazzy James","3.1.9","0","y","space","NA","NA","NA","NA","NA","432.286552676","2553.22331212","NA","NA","NA","NA","NA","NA","NA","links","rechts","2","legacy","1024","2","48000","-16","experiment","3","odd","NA","6383.82100004","143796.731084","143701.684707","94773.9126239","94773.5420427","NA","NA","6303.53525218","41146.7516916","NA","142958.112007","NA","NA","NA","NA","NA","NA","NA","144229.795241","NA","NA","143796.584802","NA","NA","NA","NA","NA","142948.614966","NA","Tutorial: Gaze cuing","0","0","0","Human","yes","1024"
"undefined","undefined","undefined","undefined","white","no","psycho","psycho","psycho","0","1","uniform","undefined","undefined","NA","NA","m","0","0","63","63","1","1","NA","NA","0","0","NA","63","NA","NA","NA","NA","NA","NA","NA","63","NA","NA","63","NA","0","NA","1","NA","63","NA","NA","NA","02/13/18 14:56:26","The main experiment item","yes","","Python Experiment.osexp","C:\Users\EfKAy\Desktop","no","mono","no","18","no","black","no","Ok","NA","yes","Female","768","psycho","31","31","1","C:/Users/EfKAy/Desktop/subject-3.csv","psycho","Jazzy James","3.1.9","0","m","space","NA","NA","NA","NA","NA","335.121396136","2553.22331212","NA","NA","NA","NA","NA","NA","NA","rechts","links","2","legacy","1024","2","48000","-16","experiment","3","odd","NA","6383.82100004","145432.79469","145345.753791","94773.9126239","94773.5420427","NA","NA","6303.53525218","41146.7516916","NA","144601.553875","NA","NA","NA","NA","NA","NA","NA","145768.670081","NA","NA","145432.627364","NA","NA","NA","NA","NA","144582.826693","NA","Tutorial: Gaze cuing","0","0","0","Greeble","yes","1024"
