"acc","accuracy","average_response_time","avg_rt","background","bidi","canvas_backend","clock_backend","color_backend","compensation","congruency","coordinates","correct","correct_Introduction","correct_keyboard_response","correct_new_mouse_response","correct_response","count_Gender","count_Introduction","count_Response","count_Target_1","count_block_loop","count_block_sequence","count_end_of_experiment","count_end_of_practice","count_experiment","count_experimental_loop","count_feedback","count_fixation_dot","count_gaze_cue","count_gaze_cue_1","count_gaze_neutral","count_getting_started","count_incorrect_sound","count_instructions","count_keyboard_response","count_logger","count_neutral_gaze","count_new_mouse_response","count_new_sketchpad","count_new_sketchpad_1","count_new_sketchpad_3","count_practice_loop","count_reset_feedback","count_target","count_trial_sequence","count_welcome","cursor_x","cursor_y","datetime","description","disable_garbage_collection","empty_column","experiment_file","experiment_path","font_bold","font_family","font_italic","font_size","font_underline","foreground","form_clicks","form_response","form_var","fullscreen","gender_subject","height","keyboard_backend","live_row","live_row_block_loop","live_row_experimental_loop","logfile","mouse_backend","opensesame_codename","opensesame_version","repeat_cycle","response","response_Introduction","response_feedback","response_keyboard_response","response_new_mouse_response","response_new_sketchpad_1","response_new_sketchpad_3","response_time","response_time_Introduction","response_time_feedback","response_time_keyboard_response","response_time_new_mouse_response","response_time_new_sketchpad_1","response_time_new_sketchpad_3","response_time_welcome","response_welcome","richtung_bild_links","richtung_bild_rechts","round_decimals","sampler_backend","sound_buf_size","sound_channels","sound_freq","sound_sample_size","start","subject_nr","subject_parity","time_Gender","time_Introduction","time_Response","time_Target_1","time_block_loop","time_block_sequence","time_end_of_experiment","time_end_of_practice","time_experiment","time_experimental_loop","time_feedback","time_fixation_dot","time_gaze_cue","time_gaze_cue_1","time_gaze_neutral","time_getting_started","time_incorrect_sound","time_instructions","time_keyboard_response","time_logger","time_neutral_gaze","time_new_mouse_response","time_new_sketchpad","time_new_sketchpad_1","time_new_sketchpad_3","time_practice_loop","time_reset_feedback","time_target","time_trial_sequence","time_welcome","title","total_correct","total_response_time","total_responses","type","uniform_coordinates","width"
"undefined","undefined","undefined","undefined","white","no","psycho","psycho","psycho","0","0","uniform","undefined","undefined","NA","NA","y","0","0","0","0","0","0","NA","NA","0","0","NA","0","NA","NA","NA","NA","NA","NA","NA","0","NA","NA","0","NA","0","NA","0","NA","0","NA","NA","NA","02/13/18 14:54:01","The main experiment item","yes","","Python Experiment.osexp","C:\Users\EfKAy\Desktop","no","mono","no","18","no","black","no","Ok","NA","yes","Male","768","psycho","0","0","0","C:/Users/EfKAy/Desktop/subject-2.csv","psycho","Jazzy James","3.1.9","0","y","space","NA","NA","NA","NA","NA","427.647101998","1045.71339702","NA","NA","NA","NA","NA","NA","NA","links","rechts","2","legacy","1024","2","48000","-16","experiment","2","even","NA","6610.17732977","13478.9874819","13384.546251","12408.6319754","12408.4318","NA","NA","6507.13317466","12406.396683","NA","12640.3550599","NA","NA","NA","NA","NA","NA","NA","13907.3957638","NA","NA","13478.8442794","NA","NA","NA","NA","NA","12635.5549556","NA","Tutorial: Gaze cuing","0","0","0","Human","yes","1024"
"undefined","undefined","undefined","undefined","white","no","psycho","psycho","psycho","0","1","uniform","undefined","undefined","NA","NA","y","0","0","1","1","0","0","NA","NA","0","0","NA","1","NA","NA","NA","NA","NA","NA","NA","1","NA","NA","1","NA","0","NA","0","NA","1","NA","NA","NA","02/13/18 14:54:01","The main experiment item","yes","","Python Experiment.osexp","C:\Users\EfKAy\Desktop","no","mono","no","18","no","black","no","Ok","NA","yes","Male","768","psycho","1","1","0","C:/Users/EfKAy/Desktop/subject-2.csv","psycho","Jazzy James","3.1.9","0","y","space","NA","NA","NA","NA","NA","304.921082117","1045.71339702","NA","NA","NA","NA","NA","NA","NA","rechts","links","2","legacy","1024","2","48000","-16","experiment","2","even","NA","6610.17732977","15223.1114346","15130.5528794","12408.6319754","12408.4318","NA","NA","6507.13317466","12406.396683","NA","14384.6437724","NA","NA","NA","NA","NA","NA","NA","15528.7911303","NA","NA","15222.9820905","NA","NA","NA","NA","NA","14371.6831829","NA","Tutorial: Gaze cuing","0","0","0","Human","yes","1024"
"undefined","undefined","undefined","undefined","white","no","psycho","psycho","psycho","0","0","uniform","undefined","undefined","NA","NA","m","0","0","2","2","0","0","NA","NA","0","0","NA","2","NA","NA","NA","NA","NA","NA","NA","2","NA","NA","2","NA","0","NA","0","NA","2","NA","NA","NA","02/13/18 14:54:01","The main experiment item","yes","","Python Experiment.osexp","C:\Users\EfKAy\Desktop","no","mono","no","18","no","black","no","Ok","NA","yes","Male","768","psycho","2","2","0","C:/Users/EfKAy/Desktop/subject-2.csv","psycho","Jazzy James","3.1.9","0","m","space","NA","NA","NA","NA","NA","532.668887759","1045.71339702","NA","NA","NA","NA","NA","NA","NA","links","rechts","2","legacy","1024","2","48000","-16","experiment","2","even","NA","6610.17732977","16749.2078955","16670.7227","12408.6319754","12408.4318","NA","NA","6507.13317466","12406.396683","NA","15927.3147594","NA","NA","NA","NA","NA","NA","NA","17282.6626002","NA","NA","16749.068286","NA","NA","NA","NA","NA","15921.6082197","NA","Tutorial: Gaze cuing","0","0","0","Greeble","yes","1024"
"undefined","undefined","undefined","undefined","white","no","psycho","psycho","psycho","0","0","uniform","undefined","undefined","NA","NA","y","0","0","3","3","0","0","NA","NA","0","0","NA","3","NA","NA","NA","NA","NA","NA","NA","3","NA","NA","3","NA","0","NA","0","NA","3","NA","NA","NA","02/13/18 14:54:01","The main experiment item","yes","","Python Experiment.osexp","C:\Users\EfKAy\Desktop","no","mono","no","18","no","black","no","Ok","NA","yes","Male","768","psycho","3","3","0","C:/Users/EfKAy/Desktop/subject-2.csv","psycho","Jazzy James","3.1.9","0","y","space","NA","NA","NA","NA","NA","349.496045508","1045.71339702","NA","NA","NA","NA","NA","NA","NA","links","rechts","2","legacy","1024","2","48000","-16","experiment","2","even","NA","6610.17732977","18493.2594772","18398.8059279","12408.6319754","12408.4318","NA","NA","6507.13317466","12406.396683","NA","17654.6332144","NA","NA","NA","NA","NA","NA","NA","18843.6214097","NA","NA","18493.1147349","NA","NA","NA","NA","NA","17643.2252677","NA","Tutorial: Gaze cuing","0","0","0","Human","yes","1024"
"undefined","undefined","undefined","undefined","white","no","psycho","psycho","psycho","0","0","uniform","undefined","undefined","NA","NA","y","0","0","4","4","0","0","NA","NA","0","0","NA","4","NA","NA","NA","NA","NA","NA","NA","4","NA","NA","4","NA","0","NA","0","NA","4","NA","NA","NA","02/13/18 14:54:01","The main experiment item","yes","","Python Experiment.osexp","C:\Users\EfKAy\Desktop","no","mono","no","18","no","black","no","Ok","NA","yes","Male","768","psycho","4","4","0","C:/Users/EfKAy/Desktop/subject-2.csv","psycho","Jazzy James","3.1.9","0","y","space","NA","NA","NA","NA","NA","467.714011922","1045.71339702","NA","NA","NA","NA","NA","NA","NA","links","links","2","legacy","1024","2","48000","-16","experiment","2","even","NA","6610.17732977","20052.9043146","19957.9256897","12408.6319754","12408.4318","NA","NA","6507.13317466","12406.396683","NA","19214.2590609","NA","NA","NA","NA","NA","NA","NA","20521.3784799","NA","NA","20052.7575193","NA","NA","NA","NA","NA","19197.9391169","NA","Tutorial: Gaze cuing","0","0","0","Human","yes","1024"
"undefined","undefined","undefined","undefined","white","no","psycho","psycho","psycho","0","1","uniform","undefined","undefined","NA","NA","y","0","0","5","5","0","0","NA","NA","0","0","NA","5","NA","NA","NA","NA","NA","NA","NA","5","NA","NA","5","NA","0","NA","0","NA","5","NA","NA","NA","02/13/18 14:54:01","The main experiment item","yes","","Python Experiment.osexp","C:\Users\EfKAy\Desktop","no","mono","no","18","no","black","no","Ok","NA","yes","Male","768","psycho","5","5","0","C:/Users/EfKAy/Desktop/subject-2.csv","psycho","Jazzy James","3.1.9","0","y","space","NA","NA","NA","NA","NA","479.507937984","1045.71339702","NA","NA","NA","NA","NA","NA","NA","rechts","links","2","legacy","1024","2","48000","-16","experiment","2","even","NA","6610.17732977","21729.9848945","21634.9980573","12408.6319754","12408.4318","NA","NA","6507.13317466","12406.396683","NA","20891.2590573","NA","NA","NA","NA","NA","NA","NA","22210.2771095","NA","NA","21729.8401522","NA","NA","NA","NA","NA","20882.1156593","NA","Tutorial: Gaze cuing","0","0","0","Human","yes","1024"
"undefined","undefined","undefined","undefined","white","no","psycho","psycho","psycho","0","1","uniform","undefined","undefined","NA","NA","m","0","0","6","6","0","0","NA","NA","0","0","NA","6","NA","NA","NA","NA","NA","NA","NA","6","NA","NA","6","NA","0","NA","0","NA","6","NA","NA","NA","02/13/18 14:54:01","The main experiment item","yes","","Python Experiment.osexp","C:\Users\EfKAy\Desktop","no","mono","no","18","no","black","no","Ok","NA","yes","Male","768","psycho","6","6","0","C:/Users/EfKAy/Desktop/subject-2.csv","psycho","Jazzy James","3.1.9","0","m","space","NA","NA","NA","NA","NA","327.1508209","1045.71339702","NA","NA","NA","NA","NA","NA","NA","rechts","links","2","legacy","1024","2","48000","-16","experiment","2","even","NA","6610.17732977","23406.9407496","23329.0925226","12408.6319754","12408.4318","NA","NA","6507.13317466","12406.396683","NA","22585.0486401","NA","NA","NA","NA","NA","NA","NA","23734.8322196","NA","NA","23406.8083259","NA","NA","NA","NA","NA","22566.784428","NA","Tutorial: Gaze cuing","0","0","0","Greeble","yes","1024"
"undefined","undefined","undefined","undefined","white","no","psycho","psycho","psycho","0","0","uniform","undefined","undefined","NA","NA","m","0","0","7","7","0","0","NA","NA","0","0","NA","7","NA","NA","NA","NA","NA","NA","NA","7","NA","NA","7","NA","0","NA","0","NA","7","NA","NA","NA","02/13/18 14:54:01","The main experiment item","yes","","Python Experiment.osexp","C:\Users\EfKAy\Desktop","no","mono","no","18","no","black","no","Ok","NA","yes","Male","768","psycho","7","7","0","C:/Users/EfKAy/Desktop/subject-2.csv","psycho","Jazzy James","3.1.9","0","m","space","NA","NA","NA","NA","NA","349.017677545","1045.71339702","NA","NA","NA","NA","NA","NA","NA","rechts","rechts","2","legacy","1024","2","48000","-16","experiment","2","even","NA","6610.17732977","24932.9653527","24855.1792314","12408.6319754","12408.4318","NA","NA","6507.13317466","12406.396683","NA","24111.1866759","NA","NA","NA","NA","NA","NA","NA","25282.7241926","NA","NA","24932.8308759","NA","NA","NA","NA","NA","24090.2262547","NA","Tutorial: Gaze cuing","0","0","0","Greeble","yes","1024"
"undefined","undefined","undefined","undefined","white","no","psycho","psycho","psycho","0","0","uniform","undefined","undefined","NA","NA","m","0","0","8","8","0","0","NA","NA","0","0","NA","8","NA","NA","NA","NA","NA","NA","NA","8","NA","NA","8","NA","0","NA","0","NA","8","NA","NA","NA","02/13/18 14:54:01","The main experiment item","yes","","Python Experiment.osexp","C:\Users\EfKAy\Desktop","no","mono","no","18","no","black","no","Ok","NA","yes","Male","768","psycho","8","8","0","C:/Users/EfKAy/Desktop/subject-2.csv","psycho","Jazzy James","3.1.9","0","m","space","NA","NA","NA","NA","NA","342.130616011","1045.71339702","NA","NA","NA","NA","NA","NA","NA","links","links","2","legacy","1024","2","48000","-16","experiment","2","even","NA","6610.17732977","26475.8344621","26397.2804884","12408.6319754","12408.4318","NA","NA","6507.13317466","12406.396683","NA","25653.9012909","NA","NA","NA","NA","NA","NA","NA","26818.7031609","NA","NA","26475.6999853","NA","NA","NA","NA","NA","25648.1572825","NA","Tutorial: Gaze cuing","0","0","0","Greeble","yes","1024"
"undefined","undefined","undefined","undefined","white","no","psycho","psycho","psycho","0","0","uniform","undefined","undefined","NA","NA","y","0","0","9","9","0","0","NA","NA","0","0","NA","9","NA","NA","NA","NA","NA","NA","NA","9","NA","NA","9","NA","0","NA","0","NA","9","NA","NA","NA","02/13/18 14:54:01","The main experiment item","yes","","Python Experiment.osexp","C:\Users\EfKAy\Desktop","no","mono","no","18","no","black","no","Ok","NA","yes","Male","768","psycho","9","9","0","C:/Users/EfKAy/Desktop/subject-2.csv","psycho","Jazzy James","3.1.9","0","y","space","NA","NA","NA","NA","NA","252.867769754","1045.71339702","NA","NA","NA","NA","NA","NA","NA","rechts","rechts","2","legacy","1024","2","48000","-16","experiment","2","even","NA","6610.17732977","28035.4541493","27940.3472069","12408.6319754","12408.4318","NA","NA","6507.13317466","12406.396683","NA","27196.8289131","NA","NA","NA","NA","NA","NA","NA","28289.0748867","NA","NA","28035.320699","NA","NA","NA","NA","NA","27182.2309912","NA","Tutorial: Gaze cuing","0","0","0","Human","yes","1024"
"undefined","undefined","undefined","undefined","white","no","psycho","psycho","psycho","0","0","uniform","undefined","undefined","NA","NA","y","0","0","10","10","0","0","NA","NA","0","0","NA","10","NA","NA","NA","NA","NA","NA","NA","10","NA","NA","10","NA","0","NA","0","NA","10","NA","NA","NA","02/13/18 14:54:01","The main experiment item","yes","","Python Experiment.osexp","C:\Users\EfKAy\Desktop","no","mono","no","18","no","black","no","Ok","NA","yes","Male","768","psycho","10","10","0","C:/Users/EfKAy/Desktop/subject-2.csv","psycho","Jazzy James","3.1.9","0","y","space","NA","NA","NA","NA","NA","274.340948041","1045.71339702","NA","NA","NA","NA","NA","NA","NA","links","links","2","legacy","1024","2","48000","-16","experiment","2","even","NA","6610.17732977","29511.2542223","29416.434198","12408.6319754","12408.4318","NA","NA","6507.13317466","12406.396683","NA","28672.6212871","NA","NA","NA","NA","NA","NA","NA","29786.3599432","NA","NA","29511.1115331","NA","NA","NA","NA","NA","28654.4191807","NA","Tutorial: Gaze cuing","0","0","0","Human","yes","1024"
"undefined","undefined","undefined","undefined","white","no","psycho","psycho","psycho","0","0","uniform","undefined","undefined","NA","NA","m","0","0","11","11","0","0","NA","NA","0","0","NA","11","NA","NA","NA","NA","NA","NA","NA","11","NA","NA","11","NA","0","NA","0","NA","11","NA","NA","NA","02/13/18 14:54:01","The main experiment item","yes","","Python Experiment.osexp","C:\Users\EfKAy\Desktop","no","mono","no","18","no","black","no","Ok","NA","yes","Male","768","psycho","11","11","0","C:/Users/EfKAy/Desktop/subject-2.csv","psycho","Jazzy James","3.1.9","0","m","space","NA","NA","NA","NA","NA","281.381990679","1045.71339702","NA","NA","NA","NA","NA","NA","NA","rechts","rechts","2","legacy","1024","2","48000","-16","experiment","2","even","NA","6610.17732977","31020.8228648","30942.5162874","12408.6319754","12408.4318","NA","NA","6507.13317466","12406.396683","NA","30198.9127907","NA","NA","NA","NA","NA","NA","NA","31302.9670619","NA","NA","31020.6812021","NA","NA","NA","NA","NA","30177.9918914","NA","Tutorial: Gaze cuing","0","0","0","Greeble","yes","1024"
"undefined","undefined","undefined","undefined","white","no","psycho","psycho","psycho","0","1","uniform","undefined","undefined","NA","NA","y","0","0","12","12","0","0","NA","NA","0","0","NA","12","NA","NA","NA","NA","NA","NA","NA","12","NA","NA","12","NA","0","NA","0","NA","12","NA","NA","NA","02/13/18 14:54:01","The main experiment item","yes","","Python Experiment.osexp","C:\Users\EfKAy\Desktop","no","mono","no","18","no","black","no","Ok","NA","yes","Male","768","psycho","12","12","0","C:/Users/EfKAy/Desktop/subject-2.csv","psycho","Jazzy James","3.1.9","0","y","space","NA","NA","NA","NA","NA","242.593637193","1045.71339702","NA","NA","NA","NA","NA","NA","NA","rechts","links","2","legacy","1024","2","48000","-16","experiment","2","even","NA","6610.17732977","32496.6532207","32401.6325077","12408.6319754","12408.4318","NA","NA","6507.13317466","12406.396683","NA","31657.8601451","NA","NA","NA","NA","NA","NA","NA","32739.9916132","NA","NA","32496.4520187","NA","NA","NA","NA","NA","31645.3450742","NA","Tutorial: Gaze cuing","0","0","0","Human","yes","1024"
"undefined","undefined","undefined","undefined","white","no","psycho","psycho","psycho","0","1","uniform","undefined","undefined","NA","NA","m","0","0","13","13","0","0","NA","NA","0","0","NA","13","NA","NA","NA","NA","NA","NA","NA","13","NA","NA","13","NA","0","NA","0","NA","13","NA","NA","NA","02/13/18 14:54:01","The main experiment item","yes","","Python Experiment.osexp","C:\Users\EfKAy\Desktop","no","mono","no","18","no","black","no","Ok","NA","yes","Male","768","psycho","13","13","0","C:/Users/EfKAy/Desktop/subject-2.csv","psycho","Jazzy James","3.1.9","0","m","space","NA","NA","NA","NA","NA","287.990859682","1045.71339702","NA","NA","NA","NA","NA","NA","NA","rechts","links","2","legacy","1024","2","48000","-16","experiment","2","even","NA","6610.17732977","33938.7529892","33860.6871355","12408.6319754","12408.4318","NA","NA","6507.13317466","12406.396683","NA","33116.9676398","NA","NA","NA","NA","NA","NA","NA","34227.4901439","NA","NA","33938.6190256","NA","NA","NA","NA","NA","33103.7945564","NA","Tutorial: Gaze cuing","0","0","0","Greeble","yes","1024"
"undefined","undefined","undefined","undefined","white","no","psycho","psycho","psycho","0","0","uniform","undefined","undefined","NA","NA","y","0","0","14","14","0","0","NA","NA","0","0","NA","14","NA","NA","NA","NA","NA","NA","NA","14","NA","NA","14","NA","0","NA","0","NA","14","NA","NA","NA","02/13/18 14:54:01","The main experiment item","yes","","Python Experiment.osexp","C:\Users\EfKAy\Desktop","no","mono","no","18","no","black","no","Ok","NA","yes","Male","768","psycho","14","14","0","C:/Users/EfKAy/Desktop/subject-2.csv","psycho","Jazzy James","3.1.9","0","y","space","NA","NA","NA","NA","NA","235.784592754","1045.71339702","NA","NA","NA","NA","NA","NA","NA","rechts","rechts","2","legacy","1024","2","48000","-16","experiment","2","even","NA","6610.17732977","35431.3174983","35336.7869584","12408.6319754","12408.4318","NA","NA","6507.13317466","12406.396683","NA","34592.7174123","NA","NA","NA","NA","NA","NA","NA","35667.8642975","NA","NA","35431.1722428","NA","NA","NA","NA","NA","34578.7025655","NA","Tutorial: Gaze cuing","0","0","0","Human","yes","1024"
"undefined","undefined","undefined","undefined","white","no","psycho","psycho","psycho","0","0","uniform","undefined","undefined","NA","NA","y","0","0","15","15","0","0","NA","NA","0","0","NA","15","NA","NA","NA","NA","NA","NA","NA","15","NA","NA","15","NA","0","NA","0","NA","15","NA","NA","NA","02/13/18 14:54:01","The main experiment item","yes","","Python Experiment.osexp","C:\Users\EfKAy\Desktop","no","mono","no","18","no","black","no","Ok","NA","yes","Male","768","psycho","15","15","0","C:/Users/EfKAy/Desktop/subject-2.csv","psycho","Jazzy James","3.1.9","0","y","space","NA","NA","NA","NA","NA","329.670465038","1045.71339702","NA","NA","NA","NA","NA","NA","NA","links","rechts","2","legacy","1024","2","48000","-16","experiment","2","even","NA","6610.17732977","36856.8042454","36761.908257","12408.6319754","12408.4318","NA","NA","6507.13317466","12406.396683","NA","36018.0712224","NA","NA","NA","NA","NA","NA","NA","37187.2199789","NA","NA","36856.6666889","NA","NA","NA","NA","NA","36010.9706404","NA","Tutorial: Gaze cuing","0","0","0","Human","yes","1024"
"undefined","undefined","undefined","undefined","white","no","psycho","psycho","psycho","0","0","uniform","undefined","undefined","NA","NA","m","0","0","16","16","0","0","NA","NA","0","0","NA","16","NA","NA","NA","NA","NA","NA","NA","16","NA","NA","16","NA","0","NA","0","NA","16","NA","NA","NA","02/13/18 14:54:01","The main experiment item","yes","","Python Experiment.osexp","C:\Users\EfKAy\Desktop","no","mono","no","18","no","black","no","Ok","NA","yes","Male","768","psycho","16","16","0","C:/Users/EfKAy/Desktop/subject-2.csv","psycho","Jazzy James","3.1.9","0","m","space","NA","NA","NA","NA","NA","252.151757619","1045.71339702","NA","NA","NA","NA","NA","NA","NA","rechts","rechts","2","legacy","1024","2","48000","-16","experiment","2","even","NA","6610.17732977","38433.1781033","38354.9746932","12408.6319754","12408.4318","NA","NA","6507.13317466","12406.396683","NA","37611.2613567","NA","NA","NA","NA","NA","NA","NA","38686.1485271","NA","NA","38433.044653","NA","NA","NA","NA","NA","37602.3535499","NA","Tutorial: Gaze cuing","0","0","0","Greeble","yes","1024"
"undefined","undefined","undefined","undefined","white","no","psycho","psycho","psycho","0","0","uniform","undefined","undefined","NA","NA","m","0","0","17","17","0","0","NA","NA","0","0","NA","17","NA","NA","NA","NA","NA","NA","NA","17","NA","NA","17","NA","0","NA","0","NA","17","NA","NA","NA","02/13/18 14:54:01","The main experiment item","yes","","Python Experiment.osexp","C:\Users\EfKAy\Desktop","no","mono","no","18","no","black","no","Ok","NA","yes","Male","768","psycho","17","17","0","C:/Users/EfKAy/Desktop/subject-2.csv","psycho","Jazzy James","3.1.9","0","m","space","NA","NA","NA","NA","NA","300.535186992","1045.71339702","NA","NA","NA","NA","NA","NA","NA","links","rechts","2","legacy","1024","2","48000","-16","experiment","2","even","NA","6610.17732977","39892.2696866","39814.0755154","12408.6319754","12408.4318","NA","NA","6507.13317466","12406.396683","NA","39070.4242847","NA","NA","NA","NA","NA","NA","NA","40193.6245664","NA","NA","39892.128024","NA","NA","NA","NA","NA","39057.8481346","NA","Tutorial: Gaze cuing","0","0","0","Greeble","yes","1024"
"undefined","undefined","undefined","undefined","white","no","psycho","psycho","psycho","0","0","uniform","undefined","undefined","NA","NA","y","0","0","18","18","0","0","NA","NA","0","0","NA","18","NA","NA","NA","NA","NA","NA","NA","18","NA","NA","18","NA","0","NA","0","NA","18","NA","NA","NA","02/13/18 14:54:01","The main experiment item","yes","","Python Experiment.osexp","C:\Users\EfKAy\Desktop","no","mono","no","18","no","black","no","Ok","NA","yes","Male","768","psycho","18","18","0","C:/Users/EfKAy/Desktop/subject-2.csv","psycho","Jazzy James","3.1.9","0","m","space","NA","NA","NA","NA","NA","270.15317527","1045.71339702","NA","NA","NA","NA","NA","NA","NA","links","links","2","legacy","1024","2","48000","-16","experiment","2","even","NA","6610.17732977","41401.5498711","41307.1450825","12408.6319754","12408.4318","NA","NA","6507.13317466","12406.396683","NA","40562.9467056","NA","NA","NA","NA","NA","NA","NA","41672.4580671","NA","NA","41401.4020493","NA","NA","NA","NA","NA","40554.0342793","NA","Tutorial: Gaze cuing","0","0","0","Human","yes","1024"
"undefined","undefined","undefined","undefined","white","no","psycho","psycho","psycho","0","1","uniform","undefined","undefined","NA","NA","y","0","0","19","19","0","0","NA","NA","0","0","NA","19","NA","NA","NA","NA","NA","NA","NA","19","NA","NA","19","NA","0","NA","0","NA","19","NA","NA","NA","02/13/18 14:54:01","The main experiment item","yes","","Python Experiment.osexp","C:\Users\EfKAy\Desktop","no","mono","no","18","no","black","no","Ok","NA","yes","Male","768","psycho","19","19","0","C:/Users/EfKAy/Desktop/subject-2.csv","psycho","Jazzy James","3.1.9","0","y","space","NA","NA","NA","NA","NA","240.098116759","1045.71339702","NA","NA","NA","NA","NA","NA","NA","rechts","links","2","legacy","1024","2","48000","-16","experiment","2","even","NA","6610.17732977","42877.3083692","42782.1947543","12408.6319754","12408.4318","NA","NA","6507.13317466","12406.396683","NA","42038.59947","NA","NA","NA","NA","NA","NA","NA","43118.1712588","NA","NA","42877.1615739","NA","NA","NA","NA","NA","42028.6764144","NA","Tutorial: Gaze cuing","0","0","0","Human","yes","1024"
"undefined","undefined","undefined","undefined","white","no","psycho","psycho","psycho","0","0","uniform","undefined","undefined","NA","NA","y","0","0","20","20","0","0","NA","NA","0","0","NA","20","NA","NA","NA","NA","NA","NA","NA","20","NA","NA","20","NA","0","NA","0","NA","20","NA","NA","NA","02/13/18 14:54:01","The main experiment item","yes","","Python Experiment.osexp","C:\Users\EfKAy\Desktop","no","mono","no","18","no","black","no","Ok","NA","yes","Male","768","psycho","20","20","0","C:/Users/EfKAy/Desktop/subject-2.csv","psycho","Jazzy James","3.1.9","0","y","space","NA","NA","NA","NA","NA","260.544754352","1045.71339702","NA","NA","NA","NA","NA","NA","NA","links","links","2","legacy","1024","2","48000","-16","experiment","2","even","NA","6610.17732977","44319.5071989","44224.3283986","12408.6319754","12408.4318","NA","NA","6507.13317466","12406.396683","NA","43480.8598921","NA","NA","NA","NA","NA","NA","NA","44580.8259649","NA","NA","44319.3609168","NA","NA","NA","NA","NA","43473.3497203","NA","Tutorial: Gaze cuing","0","0","0","Human","yes","1024"
"undefined","undefined","undefined","undefined","white","no","psycho","psycho","psycho","0","1","uniform","undefined","undefined","NA","NA","m","0","0","21","21","0","0","NA","NA","0","0","NA","21","NA","NA","NA","NA","NA","NA","NA","21","NA","NA","21","NA","0","NA","0","NA","21","NA","NA","NA","02/13/18 14:54:01","The main experiment item","yes","","Python Experiment.osexp","C:\Users\EfKAy\Desktop","no","mono","no","18","no","black","no","Ok","NA","yes","Male","768","psycho","21","21","0","C:/Users/EfKAy/Desktop/subject-2.csv","psycho","Jazzy James","3.1.9","0","m","space","NA","NA","NA","NA","NA","359.194802008","1045.71339702","NA","NA","NA","NA","NA","NA","NA","rechts","links","2","legacy","1024","2","48000","-16","experiment","2","even","NA","6610.17732977","45813.0109927","45735.3634544","12408.6319754","12408.4318","NA","NA","6507.13317466","12406.396683","NA","44991.1743164","NA","NA","NA","NA","NA","NA","NA","46172.9597889","NA","NA","45812.878569","NA","NA","NA","NA","NA","44973.0620323","NA","Tutorial: Gaze cuing","0","0","0","Greeble","yes","1024"
"undefined","undefined","undefined","undefined","white","no","psycho","psycho","psycho","0","0","uniform","undefined","undefined","NA","NA","y","0","0","22","22","0","0","NA","NA","0","0","NA","22","NA","NA","NA","NA","NA","NA","NA","22","NA","NA","22","NA","0","NA","0","NA","22","NA","NA","NA","02/13/18 14:54:01","The main experiment item","yes","","Python Experiment.osexp","C:\Users\EfKAy\Desktop","no","mono","no","18","no","black","no","Ok","NA","yes","Male","768","psycho","22","22","0","C:/Users/EfKAy/Desktop/subject-2.csv","psycho","Jazzy James","3.1.9","0","y","space","NA","NA","NA","NA","NA","273.483786559","1045.71339702","NA","NA","NA","NA","NA","NA","NA","rechts","rechts","2","legacy","1024","2","48000","-16","experiment","2","even","NA","6610.17732977","47422.8901124","47328.5058546","12408.6319754","12408.4318","NA","NA","6507.13317466","12406.396683","NA","46584.2104696","NA","NA","NA","NA","NA","NA","NA","47697.1848661","NA","NA","47422.7582019","NA","NA","NA","NA","NA","46574.874082","NA","Tutorial: Gaze cuing","0","0","0","Human","yes","1024"
"undefined","undefined","undefined","undefined","white","no","psycho","psycho","psycho","0","0","uniform","undefined","undefined","NA","NA","m","0","0","23","23","0","0","NA","NA","0","0","NA","23","NA","NA","NA","NA","NA","NA","NA","23","NA","NA","23","NA","0","NA","0","NA","23","NA","NA","NA","02/13/18 14:54:01","The main experiment item","yes","","Python Experiment.osexp","C:\Users\EfKAy\Desktop","no","mono","no","18","no","black","no","Ok","NA","yes","Male","768","psycho","23","23","0","C:/Users/EfKAy/Desktop/subject-2.csv","psycho","Jazzy James","3.1.9","0","y","space","NA","NA","NA","NA","NA","163.811258175","1045.71339702","NA","NA","NA","NA","NA","NA","NA","links","links","2","legacy","1024","2","48000","-16","experiment","2","even","NA","6610.17732977","48948.9804141","48870.5799082","12408.6319754","12408.4318","NA","NA","6507.13317466","12406.396683","NA","48127.187879","NA","NA","NA","NA","NA","NA","NA","49113.5456664","NA","NA","48948.8356719","NA","NA","NA","NA","NA","48118.3380717","NA","Tutorial: Gaze cuing","0","0","0","Greeble","yes","1024"
"undefined","undefined","undefined","undefined","white","no","psycho","psycho","psycho","0","0","uniform","undefined","undefined","NA","NA","m","0","0","24","24","0","0","NA","NA","0","0","NA","24","NA","NA","NA","NA","NA","NA","NA","24","NA","NA","24","NA","0","NA","0","NA","24","NA","NA","NA","02/13/18 14:54:01","The main experiment item","yes","","Python Experiment.osexp","C:\Users\EfKAy\Desktop","no","mono","no","18","no","black","no","Ok","NA","yes","Male","768","psycho","24","24","0","C:/Users/EfKAy/Desktop/subject-2.csv","psycho","Jazzy James","3.1.9","0","m","space","NA","NA","NA","NA","NA","281.689952888","1045.71339702","NA","NA","NA","NA","NA","NA","NA","links","links","2","legacy","1024","2","48000","-16","experiment","2","even","NA","6610.17732977","50324.297551","50246.631535","12408.6319754","12408.4318","NA","NA","6507.13317466","12406.396683","NA","49502.4095476","NA","NA","NA","NA","NA","NA","NA","50606.7563829","NA","NA","50324.156915","NA","NA","NA","NA","NA","49487.2203382","NA","Tutorial: Gaze cuing","0","0","0","Greeble","yes","1024"
"undefined","undefined","undefined","undefined","white","no","psycho","psycho","psycho","0","1","uniform","undefined","undefined","NA","NA","m","0","0","25","25","0","0","NA","NA","0","0","NA","25","NA","NA","NA","NA","NA","NA","NA","25","NA","NA","25","NA","0","NA","0","NA","25","NA","NA","NA","02/13/18 14:54:01","The main experiment item","yes","","Python Experiment.osexp","C:\Users\EfKAy\Desktop","no","mono","no","18","no","black","no","Ok","NA","yes","Male","768","psycho","25","25","0","C:/Users/EfKAy/Desktop/subject-2.csv","psycho","Jazzy James","3.1.9","0","m","space","NA","NA","NA","NA","NA","249.087533639","1045.71339702","NA","NA","NA","NA","NA","NA","NA","rechts","links","2","legacy","1024","2","48000","-16","experiment","2","even","NA","6610.17732977","51816.7198842","51738.7279416","12408.6319754","12408.4318","NA","NA","6507.13317466","12406.396683","NA","50994.8400932","NA","NA","NA","NA","NA","NA","NA","52066.5629518","NA","NA","51816.5489652","NA","NA","NA","NA","NA","50970.921695","NA","Tutorial: Gaze cuing","0","0","0","Greeble","yes","1024"
"undefined","undefined","undefined","undefined","white","no","psycho","psycho","psycho","0","0","uniform","undefined","undefined","NA","NA","y","0","0","26","26","0","0","NA","NA","0","0","NA","26","NA","NA","NA","NA","NA","NA","NA","26","NA","NA","26","NA","0","NA","0","NA","26","NA","NA","NA","02/13/18 14:54:01","The main experiment item","yes","","Python Experiment.osexp","C:\Users\EfKAy\Desktop","no","mono","no","18","no","black","no","Ok","NA","yes","Male","768","psycho","26","26","0","C:/Users/EfKAy/Desktop/subject-2.csv","psycho","Jazzy James","3.1.9","0","y","space","NA","NA","NA","NA","NA","341.882193165","1045.71339702","NA","NA","NA","NA","NA","NA","NA","rechts","rechts","2","legacy","1024","2","48000","-16","experiment","2","even","NA","6610.17732977","53242.1332337","53146.8374078","12408.6319754","12408.4318","NA","NA","6507.13317466","12406.396683","NA","52403.4669359","NA","NA","NA","NA","NA","NA","NA","53584.7606954","NA","NA","53242.0018365","NA","NA","NA","NA","NA","52391.8018407","NA","Tutorial: Gaze cuing","0","0","0","Human","yes","1024"
"undefined","undefined","undefined","undefined","white","no","psycho","psycho","psycho","0","0","uniform","undefined","undefined","NA","NA","m","0","0","27","27","0","0","NA","NA","0","0","NA","27","NA","NA","NA","NA","NA","NA","NA","27","NA","NA","27","NA","0","NA","0","NA","27","NA","NA","NA","02/13/18 14:54:01","The main experiment item","yes","","Python Experiment.osexp","C:\Users\EfKAy\Desktop","no","mono","no","18","no","black","no","Ok","NA","yes","Male","768","psycho","27","27","0","C:/Users/EfKAy/Desktop/subject-2.csv","psycho","Jazzy James","3.1.9","0","m","space","NA","NA","NA","NA","NA","297.6269972","1045.71339702","NA","NA","NA","NA","NA","NA","NA","links","rechts","2","legacy","1024","2","48000","-16","experiment","2","even","NA","6610.17732977","54785.1789081","54706.8815695","12408.6319754","12408.4318","NA","NA","6507.13317466","12406.396683","NA","53963.1199857","NA","NA","NA","NA","NA","NA","NA","55083.5604127","NA","NA","54785.0459711","NA","NA","NA","NA","NA","53940.0998106","NA","Tutorial: Gaze cuing","0","0","0","Greeble","yes","1024"
"undefined","undefined","undefined","undefined","white","no","psycho","psycho","psycho","0","0","uniform","undefined","undefined","NA","NA","y","0","0","28","28","0","0","NA","NA","0","0","NA","28","NA","NA","NA","NA","NA","NA","NA","28","NA","NA","28","NA","0","NA","0","NA","28","NA","NA","NA","02/13/18 14:54:01","The main experiment item","yes","","Python Experiment.osexp","C:\Users\EfKAy\Desktop","no","mono","no","18","no","black","no","Ok","NA","yes","Male","768","psycho","28","28","0","C:/Users/EfKAy/Desktop/subject-2.csv","psycho","Jazzy James","3.1.9","0","y","space","NA","NA","NA","NA","NA","238.143583274","1045.71339702","NA","NA","NA","NA","NA","NA","NA","links","rechts","2","legacy","1024","2","48000","-16","experiment","2","even","NA","6610.17732977","56294.3189698","56199.9691011","12408.6319754","12408.4318","NA","NA","6507.13317466","12406.396683","NA","55455.6536985","NA","NA","NA","NA","NA","NA","NA","56533.218087","NA","NA","56294.1711479","NA","NA","NA","NA","NA","55436.325477","NA","Tutorial: Gaze cuing","0","0","0","Human","yes","1024"
"undefined","undefined","undefined","undefined","white","no","psycho","psycho","psycho","0","0","uniform","undefined","undefined","NA","NA","m","0","0","29","29","0","0","NA","NA","0","0","NA","29","NA","NA","NA","NA","NA","NA","NA","29","NA","NA","29","NA","0","NA","0","NA","29","NA","NA","NA","02/13/18 14:54:01","The main experiment item","yes","","Python Experiment.osexp","C:\Users\EfKAy\Desktop","no","mono","no","18","no","black","no","Ok","NA","yes","Male","768","psycho","29","29","0","C:/Users/EfKAy/Desktop/subject-2.csv","psycho","Jazzy James","3.1.9","0","y","space","NA","NA","NA","NA","NA","331.580857275","1045.71339702","NA","NA","NA","NA","NA","NA","NA","rechts","rechts","2","legacy","1024","2","48000","-16","experiment","2","even","NA","6610.17732977","57770.0651494","57675.0516222","12408.6319754","12408.4318","NA","NA","6507.13317466","12406.396683","NA","56931.4168161","NA","NA","NA","NA","NA","NA","NA","58102.4148857","NA","NA","57769.9147612","NA","NA","NA","NA","NA","56911.1842122","NA","Tutorial: Gaze cuing","0","0","0","Greeble","yes","1024"
"undefined","undefined","undefined","undefined","white","no","psycho","psycho","psycho","0","0","uniform","undefined","undefined","NA","NA","m","0","0","30","30","0","0","NA","NA","0","0","NA","30","NA","NA","NA","NA","NA","NA","NA","30","NA","NA","30","NA","0","NA","0","NA","30","NA","NA","NA","02/13/18 14:54:01","The main experiment item","yes","","Python Experiment.osexp","C:\Users\EfKAy\Desktop","no","mono","no","18","no","black","no","Ok","NA","yes","Male","768","psycho","30","30","0","C:/Users/EfKAy/Desktop/subject-2.csv","psycho","Jazzy James","3.1.9","0","m","space","NA","NA","NA","NA","NA","343.637064483","1045.71339702","NA","NA","NA","NA","NA","NA","NA","links","links","2","legacy","1024","2","48000","-16","experiment","2","even","NA","6610.17732977","59262.6584016","59184.1470294","12408.6319754","12408.4318","NA","NA","6507.13317466","12406.396683","NA","58440.7354959","NA","NA","NA","NA","NA","NA","NA","59607.0787167","NA","NA","59262.5136594","NA","NA","NA","NA","NA","58424.0465105","NA","Tutorial: Gaze cuing","0","0","0","Greeble","yes","1024"
"undefined","undefined","undefined","undefined","white","no","psycho","psycho","psycho","0","0","uniform","undefined","undefined","NA","NA","m","0","0","31","31","0","0","NA","NA","0","0","NA","31","NA","NA","NA","NA","NA","NA","NA","31","NA","NA","31","NA","0","NA","0","NA","31","NA","NA","NA","02/13/18 14:54:01","The main experiment item","yes","","Python Experiment.osexp","C:\Users\EfKAy\Desktop","no","mono","no","18","no","black","no","Ok","NA","yes","Male","768","psycho","31","31","0","C:/Users/EfKAy/Desktop/subject-2.csv","psycho","Jazzy James","3.1.9","0","m","space","NA","NA","NA","NA","NA","285.879778739","1045.71339702","NA","NA","NA","NA","NA","NA","NA","links","rechts","2","legacy","1024","2","48000","-16","experiment","2","even","NA","6610.17732977","60805.5269978","60710.248623","12408.6319754","12408.4318","NA","NA","6507.13317466","12406.396683","NA","59966.8206649","NA","NA","NA","NA","NA","NA","NA","61092.1612839","NA","NA","60805.3879015","NA","NA","NA","NA","NA","59948.4594447","NA","Tutorial: Gaze cuing","0","0","0","Greeble","yes","1024"
"undefined","undefined","undefined","undefined","white","no","psycho","psycho","psycho","0","0","uniform","undefined","undefined","NA","NA","m","0","0","32","32","1","1","NA","NA","0","0","NA","32","NA","NA","NA","NA","NA","NA","NA","32","NA","NA","32","NA","0","NA","1","NA","32","NA","NA","NA","02/13/18 14:54:01","The main experiment item","yes","","Python Experiment.osexp","C:\Users\EfKAy\Desktop","no","mono","no","18","no","black","no","Ok","NA","yes","Male","768","psycho","0","0","1","C:/Users/EfKAy/Desktop/subject-2.csv","psycho","Jazzy James","3.1.9","0","m","space","NA","NA","NA","NA","NA","242.756857164","1045.71339702","NA","NA","NA","NA","NA","NA","NA","rechts","rechts","2","legacy","1024","2","48000","-16","experiment","2","even","NA","6610.17732977","62398.6293629","62308.8927681","61338.7332796","61338.3857956","NA","NA","6507.13317466","12406.396683","NA","61560.0200381","NA","NA","NA","NA","NA","NA","NA","62642.1278957","NA","NA","62398.492833","NA","NA","NA","NA","NA","61546.5395056","NA","Tutorial: Gaze cuing","0","0","0","Greeble","yes","1024"
"undefined","undefined","undefined","undefined","white","no","psycho","psycho","psycho","0","0","uniform","undefined","undefined","NA","NA","y","0","0","33","33","1","1","NA","NA","0","0","NA","33","NA","NA","NA","NA","NA","NA","NA","33","NA","NA","33","NA","0","NA","1","NA","33","NA","NA","NA","02/13/18 14:54:01","The main experiment item","yes","","Python Experiment.osexp","C:\Users\EfKAy\Desktop","no","mono","no","18","no","black","no","Ok","NA","yes","Male","768","psycho","1","1","1","C:/Users/EfKAy/Desktop/subject-2.csv","psycho","Jazzy James","3.1.9","0","y","space","NA","NA","NA","NA","NA","411.345122469","1045.71339702","NA","NA","NA","NA","NA","NA","NA","rechts","rechts","2","legacy","1024","2","48000","-16","experiment","2","even","NA","6610.17732977","63824.0442521","63729.4274829","61338.7332796","61338.3857956","NA","NA","6507.13317466","12406.396683","NA","62985.4446795","NA","NA","NA","NA","NA","NA","NA","64236.1787844","NA","NA","63823.9113151","NA","NA","NA","NA","NA","62973.6497269","NA","Tutorial: Gaze cuing","0","0","0","Human","yes","1024"
"undefined","undefined","undefined","undefined","white","no","psycho","psycho","psycho","0","0","uniform","undefined","undefined","NA","NA","m","0","0","34","34","1","1","NA","NA","0","0","NA","34","NA","NA","NA","NA","NA","NA","NA","34","NA","NA","34","NA","0","NA","1","NA","34","NA","NA","NA","02/13/18 14:54:01","The main experiment item","yes","","Python Experiment.osexp","C:\Users\EfKAy\Desktop","no","mono","no","18","no","black","no","Ok","NA","yes","Male","768","psycho","2","2","1","C:/Users/EfKAy/Desktop/subject-2.csv","psycho","Jazzy James","3.1.9","0","m","space","NA","NA","NA","NA","NA","295.210007129","1045.71339702","NA","NA","NA","NA","NA","NA","NA","links","rechts","2","legacy","1024","2","48000","-16","experiment","2","even","NA","6610.17732977","65434.0486098","65355.4966891","61338.7332796","61338.3857956","NA","NA","6507.13317466","12406.396683","NA","64612.1215979","NA","NA","NA","NA","NA","NA","NA","65729.9987528","NA","NA","65433.916186","NA","NA","NA","NA","NA","64595.219092","NA","Tutorial: Gaze cuing","0","0","0","Greeble","yes","1024"
"undefined","undefined","undefined","undefined","white","no","psycho","psycho","psycho","0","0","uniform","undefined","undefined","NA","NA","y","0","0","35","35","1","1","NA","NA","0","0","NA","35","NA","NA","NA","NA","NA","NA","NA","35","NA","NA","35","NA","0","NA","1","NA","35","NA","NA","NA","02/13/18 14:54:01","The main experiment item","yes","","Python Experiment.osexp","C:\Users\EfKAy\Desktop","no","mono","no","18","no","black","no","Ok","NA","yes","Male","768","psycho","3","3","1","C:/Users/EfKAy/Desktop/subject-2.csv","psycho","Jazzy James","3.1.9","0","y","space","NA","NA","NA","NA","NA","241.16058638","1045.71339702","NA","NA","NA","NA","NA","NA","NA","links","links","2","legacy","1024","2","48000","-16","experiment","2","even","NA","6610.17732977","66926.7167995","66831.5944589","61338.7332796","61338.3857956","NA","NA","6507.13317466","12406.396683","NA","66087.8872817","NA","NA","NA","NA","NA","NA","NA","67168.7145298","NA","NA","66926.5735971","NA","NA","NA","NA","NA","66066.6440486","NA","Tutorial: Gaze cuing","0","0","0","Human","yes","1024"
"undefined","undefined","undefined","undefined","white","no","psycho","psycho","psycho","0","1","uniform","undefined","undefined","NA","NA","y","0","0","36","36","1","1","NA","NA","0","0","NA","36","NA","NA","NA","NA","NA","NA","NA","36","NA","NA","36","NA","0","NA","1","NA","36","NA","NA","NA","02/13/18 14:54:01","The main experiment item","yes","","Python Experiment.osexp","C:\Users\EfKAy\Desktop","no","mono","no","18","no","black","no","Ok","NA","yes","Male","768","psycho","4","4","1","C:/Users/EfKAy/Desktop/subject-2.csv","psycho","Jazzy James","3.1.9","0","y","space","NA","NA","NA","NA","NA","235.618806431","1045.71339702","NA","NA","NA","NA","NA","NA","NA","rechts","links","2","legacy","1024","2","48000","-16","experiment","2","even","NA","6610.17732977","68385.5317301","68290.6619186","61338.7332796","61338.3857956","NA","NA","6507.13317466","12406.396683","NA","67546.9470423","NA","NA","NA","NA","NA","NA","NA","68621.9928132","NA","NA","68385.3977666","NA","NA","NA","NA","NA","67530.5793642","NA","Tutorial: Gaze cuing","0","0","0","Human","yes","1024"
"undefined","undefined","undefined","undefined","white","no","psycho","psycho","psycho","0","0","uniform","undefined","undefined","NA","NA","m","0","0","37","37","1","1","NA","NA","0","0","NA","37","NA","NA","NA","NA","NA","NA","NA","37","NA","NA","37","NA","0","NA","1","NA","37","NA","NA","NA","02/13/18 14:54:01","The main experiment item","yes","","Python Experiment.osexp","C:\Users\EfKAy\Desktop","no","mono","no","18","no","black","no","Ok","NA","yes","Male","768","psycho","5","5","1","C:/Users/EfKAy/Desktop/subject-2.csv","psycho","Jazzy James","3.1.9","0","m","space","NA","NA","NA","NA","NA","345.612128784","1045.71339702","NA","NA","NA","NA","NA","NA","NA","rechts","rechts","2","legacy","1024","2","48000","-16","experiment","2","even","NA","6610.17732977","69827.7608427","69749.749909","61338.7332796","61338.3857956","NA","NA","6507.13317466","12406.396683","NA","69005.8954232","NA","NA","NA","NA","NA","NA","NA","70174.1233727","NA","NA","69827.6248261","NA","NA","NA","NA","NA","68989.9973875","NA","Tutorial: Gaze cuing","0","0","0","Greeble","yes","1024"
"undefined","undefined","undefined","undefined","white","no","psycho","psycho","psycho","0","0","uniform","undefined","undefined","NA","NA","m","0","0","38","38","1","1","NA","NA","0","0","NA","38","NA","NA","NA","NA","NA","NA","NA","38","NA","NA","38","NA","0","NA","1","NA","38","NA","NA","NA","02/13/18 14:54:01","The main experiment item","yes","","Python Experiment.osexp","C:\Users\EfKAy\Desktop","no","mono","no","18","no","black","no","Ok","NA","yes","Male","768","psycho","6","6","1","C:/Users/EfKAy/Desktop/subject-2.csv","psycho","Jazzy James","3.1.9","0","y","space","NA","NA","NA","NA","NA","231.599386334","1045.71339702","NA","NA","NA","NA","NA","NA","NA","links","rechts","2","legacy","1024","2","48000","-16","experiment","2","even","NA","6610.17732977","71370.6325184","71292.8499901","61338.7332796","61338.3857956","NA","NA","6507.13317466","12406.396683","NA","70548.793789","NA","NA","NA","NA","NA","NA","NA","71602.9930847","NA","NA","71370.4862364","NA","NA","NA","NA","NA","70531.6952139","NA","Tutorial: Gaze cuing","0","0","0","Greeble","yes","1024"
"undefined","undefined","undefined","undefined","white","no","psycho","psycho","psycho","0","0","uniform","undefined","undefined","NA","NA","m","0","0","39","39","1","1","NA","NA","0","0","NA","39","NA","NA","NA","NA","NA","NA","NA","39","NA","NA","39","NA","0","NA","1","NA","39","NA","NA","NA","02/13/18 14:54:01","The main experiment item","yes","","Python Experiment.osexp","C:\Users\EfKAy\Desktop","no","mono","no","18","no","black","no","Ok","NA","yes","Male","768","psycho","7","7","1","C:/Users/EfKAy/Desktop/subject-2.csv","psycho","Jazzy James","3.1.9","0","m","space","NA","NA","NA","NA","NA","285.098068","1045.71339702","NA","NA","NA","NA","NA","NA","NA","links","links","2","legacy","1024","2","48000","-16","experiment","2","even","NA","6610.17732977","72812.8847282","72734.9400064","61338.7332796","61338.3857956","NA","NA","6507.13317466","12406.396683","NA","71991.0326537","NA","NA","NA","NA","NA","NA","NA","73098.7357638","NA","NA","72812.7430656","NA","NA","NA","NA","NA","71967.7553302","NA","Tutorial: Gaze cuing","0","0","0","Greeble","yes","1024"
"undefined","undefined","undefined","undefined","white","no","psycho","psycho","psycho","0","0","uniform","undefined","undefined","NA","NA","m","0","0","40","40","1","1","NA","NA","0","0","NA","40","NA","NA","NA","NA","NA","NA","NA","40","NA","NA","40","NA","0","NA","1","NA","40","NA","NA","NA","02/13/18 14:54:01","The main experiment item","yes","","Python Experiment.osexp","C:\Users\EfKAy\Desktop","no","mono","no","18","no","black","no","Ok","NA","yes","Male","768","psycho","8","8","1","C:/Users/EfKAy/Desktop/subject-2.csv","psycho","Jazzy James","3.1.9","0","m","space","NA","NA","NA","NA","NA","260.711567214","1045.71339702","NA","NA","NA","NA","NA","NA","NA","links","links","2","legacy","1024","2","48000","-16","experiment","2","even","NA","6610.17732977","74255.0917702","74177.0567128","61338.7332796","61338.3857956","NA","NA","6507.13317466","12406.396683","NA","73433.2140322","NA","NA","NA","NA","NA","NA","NA","74516.5583581","NA","NA","74254.9516474","NA","NA","NA","NA","NA","73425.0776706","NA","Tutorial: Gaze cuing","0","0","0","Greeble","yes","1024"
"undefined","undefined","undefined","undefined","white","no","psycho","psycho","psycho","0","0","uniform","undefined","undefined","NA","NA","m","0","0","41","41","1","1","NA","NA","0","0","NA","41","NA","NA","NA","NA","NA","NA","NA","41","NA","NA","41","NA","0","NA","1","NA","41","NA","NA","NA","02/13/18 14:54:01","The main experiment item","yes","","Python Experiment.osexp","C:\Users\EfKAy\Desktop","no","mono","no","18","no","black","no","Ok","NA","yes","Male","768","psycho","9","9","1","C:/Users/EfKAy/Desktop/subject-2.csv","psycho","Jazzy James","3.1.9","0","m","space","NA","NA","NA","NA","NA","295.22797159","1045.71339702","NA","NA","NA","NA","NA","NA","NA","links","rechts","2","legacy","1024","2","48000","-16","experiment","2","even","NA","6610.17732977","75714.1771943","75636.1103141","61338.7332796","61338.3857956","NA","NA","6507.13317466","12406.396683","NA","74892.2311913","NA","NA","NA","NA","NA","NA","NA","76010.1576202","NA","NA","75714.0442572","NA","NA","NA","NA","NA","74881.2795419","NA","Tutorial: Gaze cuing","0","0","0","Greeble","yes","1024"
"undefined","undefined","undefined","undefined","white","no","psycho","psycho","psycho","0","0","uniform","undefined","undefined","NA","NA","m","0","0","42","42","1","1","NA","NA","0","0","NA","42","NA","NA","NA","NA","NA","NA","NA","42","NA","NA","42","NA","0","NA","1","NA","42","NA","NA","NA","02/13/18 14:54:01","The main experiment item","yes","","Python Experiment.osexp","C:\Users\EfKAy\Desktop","no","mono","no","18","no","black","no","Ok","NA","yes","Male","768","psycho","10","10","1","C:/Users/EfKAy/Desktop/subject-2.csv","psycho","Jazzy James","3.1.9","0","m","space","NA","NA","NA","NA","NA","270.43290761","1045.71339702","NA","NA","NA","NA","NA","NA","NA","links","links","2","legacy","1024","2","48000","-16","experiment","2","even","NA","6610.17732977","77206.6816507","77128.1892695","61338.7332796","61338.3857956","NA","NA","6507.13317466","12406.396683","NA","76384.7330815","NA","NA","NA","NA","NA","NA","NA","77477.8731719","NA","NA","77206.5497403","NA","NA","NA","NA","NA","76361.4347138","NA","Tutorial: Gaze cuing","0","0","0","Greeble","yes","1024"
"undefined","undefined","undefined","undefined","white","no","psycho","psycho","psycho","0","1","uniform","undefined","undefined","NA","NA","m","0","0","43","43","1","1","NA","NA","0","0","NA","43","NA","NA","NA","NA","NA","NA","NA","43","NA","NA","43","NA","0","NA","1","NA","43","NA","NA","NA","02/13/18 14:54:01","The main experiment item","yes","","Python Experiment.osexp","C:\Users\EfKAy\Desktop","no","mono","no","18","no","black","no","Ok","NA","yes","Male","768","psycho","11","11","1","C:/Users/EfKAy/Desktop/subject-2.csv","psycho","Jazzy James","3.1.9","0","m","space","NA","NA","NA","NA","NA","289.666174098","1045.71339702","NA","NA","NA","NA","NA","NA","NA","rechts","links","2","legacy","1024","2","48000","-16","experiment","2","even","NA","6610.17732977","78682.4221844","78604.2475174","61338.7332796","61338.3857956","NA","NA","6507.13317466","12406.396683","NA","77860.5167298","NA","NA","NA","NA","NA","NA","NA","78972.8818744","NA","NA","78682.2877075","NA","NA","NA","NA","NA","77851.5021627","NA","Tutorial: Gaze cuing","0","0","0","Greeble","yes","1024"
"undefined","undefined","undefined","undefined","white","no","psycho","psycho","psycho","0","0","uniform","undefined","undefined","NA","NA","y","0","0","44","44","1","1","NA","NA","0","0","NA","44","NA","NA","NA","NA","NA","NA","NA","44","NA","NA","44","NA","0","NA","1","NA","44","NA","NA","NA","02/13/18 14:54:01","The main experiment item","yes","","Python Experiment.osexp","C:\Users\EfKAy\Desktop","no","mono","no","18","no","black","no","Ok","NA","yes","Male","768","psycho","12","12","1","C:/Users/EfKAy/Desktop/subject-2.csv","psycho","Jazzy James","3.1.9","0","y","space","NA","NA","NA","NA","NA","289.132372936","1045.71339702","NA","NA","NA","NA","NA","NA","NA","links","rechts","2","legacy","1024","2","48000","-16","experiment","2","even","NA","6610.17732977","80191.8455713","80097.3545533","61338.7332796","61338.3857956","NA","NA","6507.13317466","12406.396683","NA","79353.0755929","NA","NA","NA","NA","NA","NA","NA","80481.7334782","NA","NA","80191.685431","NA","NA","NA","NA","NA","79335.9046467","NA","Tutorial: Gaze cuing","0","0","0","Human","yes","1024"
"undefined","undefined","undefined","undefined","white","no","psycho","psycho","psycho","0","1","uniform","undefined","undefined","NA","NA","y","0","0","45","45","1","1","NA","NA","0","0","NA","45","NA","NA","NA","NA","NA","NA","NA","45","NA","NA","45","NA","0","NA","1","NA","45","NA","NA","NA","02/13/18 14:54:01","The main experiment item","yes","","Python Experiment.osexp","C:\Users\EfKAy\Desktop","no","mono","no","18","no","black","no","Ok","NA","yes","Male","768","psycho","13","13","1","C:/Users/EfKAy/Desktop/subject-2.csv","psycho","Jazzy James","3.1.9","0","m","space","NA","NA","NA","NA","NA","296.282228886","1045.71339702","NA","NA","NA","NA","NA","NA","NA","rechts","links","2","legacy","1024","2","48000","-16","experiment","2","even","NA","6610.17732977","81704.634472","81606.4227572","61338.7332796","61338.3857956","NA","NA","6507.13317466","12406.396683","NA","80862.3973523","NA","NA","NA","NA","NA","NA","NA","82001.7584642","NA","NA","81704.4604733","NA","NA","NA","NA","NA","80852.7052684","NA","Tutorial: Gaze cuing","0","0","0","Human","yes","1024"
"undefined","undefined","undefined","undefined","white","no","psycho","psycho","psycho","0","0","uniform","undefined","undefined","NA","NA","y","0","0","46","46","1","1","NA","NA","0","0","NA","46","NA","NA","NA","NA","NA","NA","NA","46","NA","NA","46","NA","0","NA","1","NA","46","NA","NA","NA","02/13/18 14:54:01","The main experiment item","yes","","Python Experiment.osexp","C:\Users\EfKAy\Desktop","no","mono","no","18","no","black","no","Ok","NA","yes","Male","768","psycho","14","14","1","C:/Users/EfKAy/Desktop/subject-2.csv","psycho","Jazzy James","3.1.9","0","y","space","NA","NA","NA","NA","NA","357.348055295","1045.71339702","NA","NA","NA","NA","NA","NA","NA","links","rechts","2","legacy","1024","2","48000","-16","experiment","2","even","NA","6610.17732977","83210.3489674","83115.5253502","61338.7332796","61338.3857956","NA","NA","6507.13317466","12406.396683","NA","82371.6636786","NA","NA","NA","NA","NA","NA","NA","83568.449477","NA","NA","83210.2144905","NA","NA","NA","NA","NA","82355.8416068","NA","Tutorial: Gaze cuing","0","0","0","Human","yes","1024"
"undefined","undefined","undefined","undefined","white","no","psycho","psycho","psycho","0","0","uniform","undefined","undefined","NA","NA","y","0","0","47","47","1","1","NA","NA","0","0","NA","47","NA","NA","NA","NA","NA","NA","NA","47","NA","NA","47","NA","0","NA","1","NA","47","NA","NA","NA","02/13/18 14:54:01","The main experiment item","yes","","Python Experiment.osexp","C:\Users\EfKAy\Desktop","no","mono","no","18","no","black","no","Ok","NA","yes","Male","768","psycho","15","15","1","C:/Users/EfKAy/Desktop/subject-2.csv","psycho","Jazzy James","3.1.9","0","y","space","NA","NA","NA","NA","NA","322.552945119","1045.71339702","NA","NA","NA","NA","NA","NA","NA","rechts","rechts","2","legacy","1024","2","48000","-16","experiment","2","even","NA","6610.17732977","84736.3756236","84641.636696","61338.7332796","61338.3857956","NA","NA","6507.13317466","12406.396683","NA","83897.6980338","NA","NA","NA","NA","NA","NA","NA","85059.6728107","NA","NA","84736.2421733","NA","NA","NA","NA","NA","83887.7061999","NA","Tutorial: Gaze cuing","0","0","0","Human","yes","1024"
"undefined","undefined","undefined","undefined","white","no","psycho","psycho","psycho","0","0","uniform","undefined","undefined","NA","NA","m","0","0","48","48","1","1","NA","NA","0","0","NA","48","NA","NA","NA","NA","NA","NA","NA","48","NA","NA","48","NA","0","NA","1","NA","48","NA","NA","NA","02/13/18 14:54:01","The main experiment item","yes","","Python Experiment.osexp","C:\Users\EfKAy\Desktop","no","mono","no","18","no","black","no","Ok","NA","yes","Male","768","psycho","16","16","1","C:/Users/EfKAy/Desktop/subject-2.csv","psycho","Jazzy James","3.1.9","0","m","space","NA","NA","NA","NA","NA","387.458547004","1045.71339702","NA","NA","NA","NA","NA","NA","NA","links","rechts","2","legacy","1024","2","48000","-16","experiment","2","even","NA","6610.17732977","86245.6968697","86167.7136526","61338.7332796","61338.3857956","NA","NA","6507.13317466","12406.396683","NA","85423.8714853","NA","NA","NA","NA","NA","NA","NA","86633.8940128","NA","NA","86245.5449417","NA","NA","NA","NA","NA","85413.9617747","NA","Tutorial: Gaze cuing","0","0","0","Greeble","yes","1024"
"undefined","undefined","undefined","undefined","white","no","psycho","psycho","psycho","0","0","uniform","undefined","undefined","NA","NA","y","0","0","49","49","1","1","NA","NA","0","0","NA","49","NA","NA","NA","NA","NA","NA","NA","49","NA","NA","49","NA","0","NA","1","NA","49","NA","NA","NA","02/13/18 14:54:01","The main experiment item","yes","","Python Experiment.osexp","C:\Users\EfKAy\Desktop","no","mono","no","18","no","black","no","Ok","NA","yes","Male","768","psycho","17","17","1","C:/Users/EfKAy/Desktop/subject-2.csv","psycho","Jazzy James","3.1.9","0","y","space","NA","NA","NA","NA","NA","253.246050001","1045.71339702","NA","NA","NA","NA","NA","NA","NA","links","links","2","legacy","1024","2","48000","-16","experiment","2","even","NA","6610.17732977","87838.8438893","87743.7774953","61338.7332796","61338.3857956","NA","NA","6507.13317466","12406.396683","NA","87000.3418381","NA","NA","NA","NA","NA","NA","NA","88092.8680572","NA","NA","87838.7099258","NA","NA","NA","NA","NA","86990.2884117","NA","Tutorial: Gaze cuing","0","0","0","Human","yes","1024"
"undefined","undefined","undefined","undefined","white","no","psycho","psycho","psycho","0","1","uniform","undefined","undefined","NA","NA","m","0","0","50","50","1","1","NA","NA","0","0","NA","50","NA","NA","NA","NA","NA","NA","NA","50","NA","NA","50","NA","0","NA","1","NA","50","NA","NA","NA","02/13/18 14:54:01","The main experiment item","yes","","Python Experiment.osexp","C:\Users\EfKAy\Desktop","no","mono","no","18","no","black","no","Ok","NA","yes","Male","768","psycho","18","18","1","C:/Users/EfKAy/Desktop/subject-2.csv","psycho","Jazzy James","3.1.9","0","m","space","NA","NA","NA","NA","NA","328.957532523","1045.71339702","NA","NA","NA","NA","NA","NA","NA","rechts","links","2","legacy","1024","2","48000","-16","experiment","2","even","NA","6610.17732977","89264.3142118","89185.8654585","61338.7332796","61338.3857956","NA","NA","6507.13317466","12406.396683","NA","88442.4441729","NA","NA","NA","NA","NA","NA","NA","89594.0164996","NA","NA","89264.1781951","NA","NA","NA","NA","NA","88420.6491741","NA","Tutorial: Gaze cuing","0","0","0","Greeble","yes","1024"
"undefined","undefined","undefined","undefined","white","no","psycho","psycho","psycho","0","0","uniform","undefined","undefined","NA","NA","y","0","0","51","51","1","1","NA","NA","0","0","NA","51","NA","NA","NA","NA","NA","NA","NA","51","NA","NA","51","NA","0","NA","1","NA","51","NA","NA","NA","02/13/18 14:54:01","The main experiment item","yes","","Python Experiment.osexp","C:\Users\EfKAy\Desktop","no","mono","no","18","no","black","no","Ok","NA","yes","Male","768","psycho","19","19","1","C:/Users/EfKAy/Desktop/subject-2.csv","psycho","Jazzy James","3.1.9","0","y","space","NA","NA","NA","NA","NA","287.081344624","1045.71339702","NA","NA","NA","NA","NA","NA","NA","links","links","2","legacy","1024","2","48000","-16","experiment","2","even","NA","6610.17732977","90807.2002591","90711.9372825","61338.7332796","61338.3857956","NA","NA","6507.13317466","12406.396683","NA","89968.6217305","NA","NA","NA","NA","NA","NA","NA","91095.0694737","NA","NA","90807.0693752","NA","NA","NA","NA","NA","89944.374326","NA","Tutorial: Gaze cuing","0","0","0","Human","yes","1024"
"undefined","undefined","undefined","undefined","white","no","psycho","psycho","psycho","0","0","uniform","undefined","undefined","NA","NA","m","0","0","52","52","1","1","NA","NA","0","0","NA","52","NA","NA","NA","NA","NA","NA","NA","52","NA","NA","52","NA","0","NA","1","NA","52","NA","NA","NA","02/13/18 14:54:01","The main experiment item","yes","","Python Experiment.osexp","C:\Users\EfKAy\Desktop","no","mono","no","18","no","black","no","Ok","NA","yes","Male","768","psycho","20","20","1","C:/Users/EfKAy/Desktop/subject-2.csv","psycho","Jazzy James","3.1.9","0","y","space","NA","NA","NA","NA","NA","293.583966666","1045.71339702","NA","NA","NA","NA","NA","NA","NA","rechts","rechts","2","legacy","1024","2","48000","-16","experiment","2","even","NA","6610.17732977","92283.0224027","92205.0720349","61338.7332796","61338.3857956","NA","NA","6507.13317466","12406.396683","NA","91461.0645946","NA","NA","NA","NA","NA","NA","NA","92577.3757616","NA","NA","92282.870988","NA","NA","NA","NA","NA","91448.7681768","NA","Tutorial: Gaze cuing","0","0","0","Greeble","yes","1024"
"undefined","undefined","undefined","undefined","white","no","psycho","psycho","psycho","0","1","uniform","undefined","undefined","NA","NA","y","0","0","53","53","1","1","NA","NA","0","0","NA","53","NA","NA","NA","NA","NA","NA","NA","53","NA","NA","53","NA","0","NA","1","NA","53","NA","NA","NA","02/13/18 14:54:01","The main experiment item","yes","","Python Experiment.osexp","C:\Users\EfKAy\Desktop","no","mono","no","18","no","black","no","Ok","NA","yes","Male","768","psycho","21","21","1","C:/Users/EfKAy/Desktop/subject-2.csv","psycho","Jazzy James","3.1.9","0","y","space","NA","NA","NA","NA","NA","273.007471676","1045.71339702","NA","NA","NA","NA","NA","NA","NA","rechts","links","2","legacy","1024","2","48000","-16","experiment","2","even","NA","6610.17732977","93792.2681981","93698.3386979","61338.7332796","61338.3857956","NA","NA","6507.13317466","12406.396683","NA","92953.5947145","NA","NA","NA","NA","NA","NA","NA","94066.0286374","NA","NA","93792.1203763","NA","NA","NA","NA","NA","92935.1996185","NA","Tutorial: Gaze cuing","0","0","0","Human","yes","1024"
"undefined","undefined","undefined","undefined","white","no","psycho","psycho","psycho","0","0","uniform","undefined","undefined","NA","NA","y","0","0","54","54","1","1","NA","NA","0","0","NA","54","NA","NA","NA","NA","NA","NA","NA","54","NA","NA","54","NA","0","NA","1","NA","54","NA","NA","NA","02/13/18 14:54:01","The main experiment item","yes","","Python Experiment.osexp","C:\Users\EfKAy\Desktop","no","mono","no","18","no","black","no","Ok","NA","yes","Male","768","psycho","22","22","1","C:/Users/EfKAy/Desktop/subject-2.csv","psycho","Jazzy James","3.1.9","0","y","space","NA","NA","NA","NA","NA","276.960679899","1045.71339702","NA","NA","NA","NA","NA","NA","NA","rechts","rechts","2","legacy","1024","2","48000","-16","experiment","2","even","NA","6610.17732977","95251.2704724","95156.2240959","61338.7332796","61338.3857956","NA","NA","6507.13317466","12406.396683","NA","94412.5672192","NA","NA","NA","NA","NA","NA","NA","95528.9856597","NA","NA","95251.1277833","NA","NA","NA","NA","NA","94403.5367407","NA","Tutorial: Gaze cuing","0","0","0","Human","yes","1024"
"undefined","undefined","undefined","undefined","white","no","psycho","psycho","psycho","0","0","uniform","undefined","undefined","NA","NA","y","0","0","55","55","1","1","NA","NA","0","0","NA","55","NA","NA","NA","NA","NA","NA","NA","55","NA","NA","55","NA","0","NA","1","NA","55","NA","NA","NA","02/13/18 14:54:01","The main experiment item","yes","","Python Experiment.osexp","C:\Users\EfKAy\Desktop","no","mono","no","18","no","black","no","Ok","NA","yes","Male","768","psycho","23","23","1","C:/Users/EfKAy/Desktop/subject-2.csv","psycho","Jazzy James","3.1.9","0","y","space","NA","NA","NA","NA","NA","299.507619755","1045.71339702","NA","NA","NA","NA","NA","NA","NA","links","rechts","2","legacy","1024","2","48000","-16","experiment","2","even","NA","6610.17732977","96743.7754422","96649.2895568","61338.7332796","61338.3857956","NA","NA","6507.13317466","12406.396683","NA","95905.1799757","NA","NA","NA","NA","NA","NA","NA","97044.0298703","NA","NA","96743.6414786","NA","NA","NA","NA","NA","95881.5135932","NA","Tutorial: Gaze cuing","0","0","0","Human","yes","1024"
"undefined","undefined","undefined","undefined","white","no","psycho","psycho","psycho","0","1","uniform","undefined","undefined","NA","NA","y","0","0","56","56","1","1","NA","NA","0","0","NA","56","NA","NA","NA","NA","NA","NA","NA","56","NA","NA","56","NA","0","NA","1","NA","56","NA","NA","NA","02/13/18 14:54:01","The main experiment item","yes","","Python Experiment.osexp","C:\Users\EfKAy\Desktop","no","mono","no","18","no","black","no","Ok","NA","yes","Male","768","psycho","24","24","1","C:/Users/EfKAy/Desktop/subject-2.csv","psycho","Jazzy James","3.1.9","0","y","space","NA","NA","NA","NA","NA","267.227534285","1045.71339702","NA","NA","NA","NA","NA","NA","NA","rechts","links","2","legacy","1024","2","48000","-16","experiment","2","even","NA","6610.17732977","98253.0612727","98158.3936896","61338.7332796","61338.3857956","NA","NA","6507.13317466","12406.396683","NA","97414.4950626","NA","NA","NA","NA","NA","NA","NA","98521.0915618","NA","NA","98252.9288489","NA","NA","NA","NA","NA","97393.5998267","NA","Tutorial: Gaze cuing","0","0","0","Human","yes","1024"
"undefined","undefined","undefined","undefined","white","no","psycho","psycho","psycho","0","0","uniform","undefined","undefined","NA","NA","y","0","0","57","57","1","1","NA","NA","0","0","NA","57","NA","NA","NA","NA","NA","NA","NA","57","NA","NA","57","NA","0","NA","1","NA","57","NA","NA","NA","02/13/18 14:54:01","The main experiment item","yes","","Python Experiment.osexp","C:\Users\EfKAy\Desktop","no","mono","no","18","no","black","no","Ok","NA","yes","Male","768","psycho","25","25","1","C:/Users/EfKAy/Desktop/subject-2.csv","psycho","Jazzy James","3.1.9","0","y","space","NA","NA","NA","NA","NA","242.984749197","1045.71339702","NA","NA","NA","NA","NA","NA","NA","links","links","2","legacy","1024","2","48000","-16","experiment","2","even","NA","6610.17732977","99712.2231741","99617.5586707","61338.7332796","61338.3857956","NA","NA","6507.13317466","12406.396683","NA","98873.537372","NA","NA","NA","NA","NA","NA","NA","99955.9624307","NA","NA","99712.0938299","NA","NA","NA","NA","NA","98851.282483","NA","Tutorial: Gaze cuing","0","0","0","Human","yes","1024"
"undefined","undefined","undefined","undefined","white","no","psycho","psycho","psycho","0","0","uniform","undefined","undefined","NA","NA","y","0","0","58","58","1","1","NA","NA","0","0","NA","58","NA","NA","NA","NA","NA","NA","NA","58","NA","NA","58","NA","0","NA","1","NA","58","NA","NA","NA","02/13/18 14:54:01","The main experiment item","yes","","Python Experiment.osexp","C:\Users\EfKAy\Desktop","no","mono","no","18","no","black","no","Ok","NA","yes","Male","768","psycho","26","26","1","C:/Users/EfKAy/Desktop/subject-2.csv","psycho","Jazzy James","3.1.9","0","y","space","NA","NA","NA","NA","NA","333.22640201","1045.71339702","NA","NA","NA","NA","NA","NA","NA","links","rechts","2","legacy","1024","2","48000","-16","experiment","2","even","NA","6610.17732977","101137.605727","101042.548059","61338.7332796","61338.3857956","NA","NA","6507.13317466","12406.396683","NA","100298.918385","NA","NA","NA","NA","NA","NA","NA","101471.591256","NA","NA","101137.460472","NA","NA","NA","NA","NA","100277.939486","NA","Tutorial: Gaze cuing","0","0","0","Human","yes","1024"
"undefined","undefined","undefined","undefined","white","no","psycho","psycho","psycho","0","1","uniform","undefined","undefined","NA","NA","m","0","0","59","59","1","1","NA","NA","0","0","NA","59","NA","NA","NA","NA","NA","NA","NA","59","NA","NA","59","NA","0","NA","1","NA","59","NA","NA","NA","02/13/18 14:54:01","The main experiment item","yes","","Python Experiment.osexp","C:\Users\EfKAy\Desktop","no","mono","no","18","no","black","no","Ok","NA","yes","Male","768","psycho","27","27","1","C:/Users/EfKAy/Desktop/subject-2.csv","psycho","Jazzy James","3.1.9","0","m","space","NA","NA","NA","NA","NA","243.420002455","1045.71339702","NA","NA","NA","NA","NA","NA","NA","rechts","links","2","legacy","1024","2","48000","-16","experiment","2","even","NA","6610.17732977","102680.386041","102602.652786","61338.7332796","61338.3857956","NA","NA","6507.13317466","12406.396683","NA","101858.567329","NA","NA","NA","NA","NA","NA","NA","102924.652939","NA","NA","102680.252591","NA","NA","NA","NA","NA","101850.859035","NA","Tutorial: Gaze cuing","0","0","0","Greeble","yes","1024"
"undefined","undefined","undefined","undefined","white","no","psycho","psycho","psycho","0","0","uniform","undefined","undefined","NA","NA","m","0","0","60","60","1","1","NA","NA","0","0","NA","60","NA","NA","NA","NA","NA","NA","NA","60","NA","NA","60","NA","0","NA","1","NA","60","NA","NA","NA","02/13/18 14:54:01","The main experiment item","yes","","Python Experiment.osexp","C:\Users\EfKAy\Desktop","no","mono","no","18","no","black","no","Ok","NA","yes","Male","768","psycho","28","28","1","C:/Users/EfKAy/Desktop/subject-2.csv","psycho","Jazzy James","3.1.9","0","m","space","NA","NA","NA","NA","NA","328.136813238","1045.71339702","NA","NA","NA","NA","NA","NA","NA","links","links","2","legacy","1024","2","48000","-16","experiment","2","even","NA","6610.17732977","104139.879002","104044.732024","61338.7332796","61338.3857956","NA","NA","6507.13317466","12406.396683","NA","103300.751274","NA","NA","NA","NA","NA","NA","NA","104468.756464","NA","NA","104139.744525","NA","NA","NA","NA","NA","103289.942827","NA","Tutorial: Gaze cuing","0","0","0","Greeble","yes","1024"
"undefined","undefined","undefined","undefined","white","no","psycho","psycho","psycho","0","1","uniform","undefined","undefined","NA","NA","m","0","0","61","61","1","1","NA","NA","0","0","NA","61","NA","NA","NA","NA","NA","NA","NA","61","NA","NA","61","NA","0","NA","1","NA","61","NA","NA","NA","02/13/18 14:54:01","The main experiment item","yes","","Python Experiment.osexp","C:\Users\EfKAy\Desktop","no","mono","no","18","no","black","no","Ok","NA","yes","Male","768","psycho","29","29","1","C:/Users/EfKAy/Desktop/subject-2.csv","psycho","Jazzy James","3.1.9","0","m","space","NA","NA","NA","NA","NA","284.297879525","1045.71339702","NA","NA","NA","NA","NA","NA","NA","rechts","links","2","legacy","1024","2","48000","-16","experiment","2","even","NA","6610.17732977","105615.205326","105536.823298","61338.7332796","61338.3857956","NA","NA","6507.13317466","12406.396683","NA","104793.315783","NA","NA","NA","NA","NA","NA","NA","105900.25874","NA","NA","105615.059044","NA","NA","NA","NA","NA","104778.962691","NA","Tutorial: Gaze cuing","0","0","0","Greeble","yes","1024"
"undefined","undefined","undefined","undefined","white","no","psycho","psycho","psycho","0","0","uniform","undefined","undefined","NA","NA","m","0","0","62","62","1","1","NA","NA","0","0","NA","62","NA","NA","NA","NA","NA","NA","NA","62","NA","NA","62","NA","0","NA","1","NA","62","NA","NA","NA","02/13/18 14:54:01","The main experiment item","yes","","Python Experiment.osexp","C:\Users\EfKAy\Desktop","no","mono","no","18","no","black","no","Ok","NA","yes","Male","768","psycho","30","30","1","C:/Users/EfKAy/Desktop/subject-2.csv","psycho","Jazzy James","3.1.9","0","m","space","NA","NA","NA","NA","NA","234.687734019","1045.71339702","NA","NA","NA","NA","NA","NA","NA","rechts","rechts","2","legacy","1024","2","48000","-16","experiment","2","even","NA","6610.17732977","107107.744172","107029.877467","61338.7332796","61338.3857956","NA","NA","6507.13317466","12406.396683","NA","106285.84539","NA","NA","NA","NA","NA","NA","NA","107343.198218","NA","NA","107107.598916","NA","NA","NA","NA","NA","106268.189916","NA","Tutorial: Gaze cuing","0","0","0","Greeble","yes","1024"
"undefined","undefined","undefined","undefined","white","no","psycho","psycho","psycho","0","0","uniform","undefined","undefined","NA","NA","y","0","0","63","63","1","1","NA","NA","0","0","NA","63","NA","NA","NA","NA","NA","NA","NA","63","NA","NA","63","NA","0","NA","1","NA","63","NA","NA","NA","02/13/18 14:54:01","The main experiment item","yes","","Python Experiment.osexp","C:\Users\EfKAy\Desktop","no","mono","no","18","no","black","no","Ok","NA","yes","Male","768","psycho","31","31","1","C:/Users/EfKAy/Desktop/subject-2.csv","psycho","Jazzy James","3.1.9","0","y","space","NA","NA","NA","NA","NA","266.030074563","1045.71339702","NA","NA","NA","NA","NA","NA","NA","rechts","rechts","2","legacy","1024","2","48000","-16","experiment","2","even","NA","6610.17732977","108566.768003","108471.99212","61338.7332796","61338.3857956","NA","NA","6507.13317466","12406.396683","NA","107728.138148","NA","NA","NA","NA","NA","NA","NA","108833.536674","NA","NA","108566.633013","NA","NA","NA","NA","NA","107714.475404","NA","Tutorial: Gaze cuing","0","0","0","Human","yes","1024"
