,trial_id,word,correct_key,button,rt,subj,freqs,sims
0,0,pinguin,l,l,0.41572308540299996,0,2.32,0.0
1,1,goldfisch,l,l,0.48744392395,0,1.97,0.17939288426068078
2,2,lama,l,l,0.533624887466,0,4.09,0.00478943851665954
3,3,orchidee,l,l,0.47049117088299997,0,2.13,0.08805375335153058
4,4,scotch,l,l,0.45990014076200003,0,9.37,0.02673433050956041
5,5,axel,s,s,0.464433193207,0,4.49,-0.049943374418506
6,6,panther,l,l,0.499804019928,0,1.85,-0.02488453444956044
7,7,braten,l,l,0.446707010269,0,6.02,0.04249839380001946
8,8,waffeln,l,s,0.41069889068599996,0,3.58,0.2803027751490248
9,9,tiger,l,l,0.632098913193,0,17.24,0.01924069994716086
10,10,aylin,s,s,0.540467977524,0,0.0,-0.035129832633165166
11,11,lilie,l,s,0.517967939377,0,0.71,-0.08414842667038215
12,12,leopard,l,l,0.529164791107,0,1.89,0.09557238819734967
13,13,loewe,l,l,0.544371843338,0,5.51,0.2799960420640629
14,14,kommunismus,l,l,0.518079042435,0,2.01,-0.012393867578557928
15,15,puma,l,l,0.44469285011299997,0,1.18,-0.05720051613293314
16,16,forelle,l,l,0.521749973297,0,0.63,0.0539129226506035
17,17,lachs,l,l,0.49260616302500004,0,3.5,0.3889357454645265
18,18,goldfisch,l,l,0.44372701644900003,0,1.97,0.2428449157441889
19,19,mohammed,s,s,0.61959695816,0,2.56,-0.059897311602512764
20,20,floete,l,l,0.479782104492,0,5.47,-0.015952514161449768
21,21,begehren,l,l,0.533659934998,0,2.01,0.0008719872008467319
22,22,karpfen,l,l,0.438537836075,0,1.73,-0.004059959029818878
23,23,erpressung,l,l,0.48232793807999996,0,6.3,-0.07441997122966283
24,24,mechtild,s,l,0.48238587379500003,0,0.0,0.0552292446851432
25,25,trauerweide,l,l,0.52768611908,0,0.08,0.011801623100477138
26,26,gitarre,l,l,0.593241930008,0,9.29,0.05520198214843551
27,27,fragen,l,l,0.43656992912299997,0,350.05,0.03864090939107041
28,28,hai,l,l,0.645483016968,0,8.15,-0.05705476737166292
29,29,storch,l,l,0.48019194603,0,0.75,0.09410831136360788
30,30,kaese,l,l,0.550346136093,0,0.28,0.01027796475821953
31,31,feile,l,l,0.4505100250240001,0,0.43,0.08717711953080817
32,32,adler,l,l,0.47457289695699995,0,6.58,-0.021784777077764682
33,33,spatz,l,s,0.581449985504,0,2.44,0.25041863849785256
34,34,rugby,l,l,0.55405497551,0,0.63,-0.09063544617582914
35,35,pinguin,l,l,0.459193944931,0,2.32,-0.032316763920140594
36,36,halle,l,l,0.47833895683300004,0,9.41,-0.07075799500552737
37,37,professor,l,l,0.544070005417,0,61.77,0.04356721770631072
38,38,ulrike,s,l,0.469752073288,0,0.98,0.029626169956486263
39,39,lachs,l,l,0.528548002243,0,3.5,0.014627300896464903
40,40,amsel,l,l,0.54284286499,0,0.63,0.09688175356489864
41,41,birke,l,l,0.5306458473210001,0,0.24,0.10306465804496276
42,42,fuehlen,l,l,0.483906984329,0,0.2,0.014714158506181903
43,43,buttermilch,l,l,0.517712116241,0,0.35,-0.012817890387259804
44,44,gnu,l,l,0.633472919464,0,0.04,0.09768657908390237
45,45,affe,l,l,0.498528957367,0,16.77,-0.027977082859615324
46,46,saege,l,l,0.492763996124,0,3.11,0.13030503466667753
47,47,gefluegel,l,l,0.575531005859,0,0.75,0.07700730383019806
48,48,fledermaus,l,l,0.518158912659,0,3.39,0.07342593425655547
49,49,lama,l,l,0.698943138123,0,4.09,-0.0019157100309466376
50,50,helene,s,s,0.553560972214,0,6.42,-0.02298124822542001
51,51,tiger,l,l,0.5393331050869999,0,17.24,0.04190269213233757
52,52,qualle,l,l,0.517978906631,0,0.71,0.021276092165811097
53,53,hendrik,s,s,0.518111944199,0,0.2,0.05006133887543513
54,54,psychiater,l,l,0.524885892868,0,10.51,-0.006645883948450962
55,55,gert,s,s,0.57698392868,0,0.24,0.014748317378734803
56,56,tim,s,s,0.568692922592,0,23.9,0.191429702511124
57,57,krawatte,l,l,0.486585140228,0,10.75,-0.013614253083678444
58,58,dietmar,s,l,0.443656921387,0,0.12,-0.04933803646834311
59,59,einbruch,l,l,0.534436225891,0,10.12,-0.02331480839772821
60,60,fanta,l,l,0.610730171204,0,1.85,-0.02414172548980357
61,61,ahorn,l,l,0.60910320282,0,0.39,0.0629004304335356
62,62,beil,l,l,0.49441385269199994,0,1.69,0.04323709659036112
63,63,sebastian,s,s,0.519093036652,0,19.13,0.0111948174916681
64,64,sahne,l,s,0.578459024429,0,5.32,-0.014015758106324844
65,65,ingmar,s,s,0.6254048347469999,0,0.16,-0.009621177358117228
66,66,sebastian,s,s,0.5193641185760001,0,19.13,0.10756391168708812
67,67,antonia,s,s,0.449923038483,0,1.65,0.1227104874191795
68,68,puma,l,l,0.49104690551799995,0,1.18,-0.005773394840444043
69,69,joachim,s,s,0.553468942642,0,0.12,-0.013511478700387082
70,70,fichte,l,l,0.554365158081,0,0.08,-0.05704072787710233
71,71,pullover,l,l,0.458034038544,0,5.24,-0.00043964968809401803
72,72,mord,l,l,0.473532915115,0,65.91,0.10269760623161936
73,73,tischler,l,l,0.480252981186,0,0.47,-0.006121436009025231
74,74,broetchen,l,l,0.5183579921720001,0,5.75,0.10135815954133652
75,75,fichte,l,l,0.412019014359,0,0.08,0.011414747188435149
76,76,trauerweide,l,l,0.467163085938,0,0.08,0.1684536115861162
77,77,eiche,l,l,0.48865199089100003,0,1.93,0.3425921152579817
78,78,chlor,l,l,0.44174098968500003,0,0.63,0.02774843459022609
79,79,birke,l,l,0.466929197311,0,0.24,0.03667731061499184
80,80,veilchen,l,l,0.498686075211,0,0.87,0.1551022745677863
81,81,orchidee,l,l,0.517422914505,0,2.13,0.2130961189912892
82,82,veilchen,l,l,0.45355916023299997,0,0.87,0.2130961189912892
83,83,tulpe,l,l,0.481894016266,0,0.55,0.23974955685331764
84,84,lilie,l,l,0.44178485870399997,0,0.71,0.3452477878982852
85,85,beton,l,l,0.4631838798520001,0,3.07,-0.05780749472148746
86,86,rose,l,l,0.45246100425700003,0,45.12,0.02923628432708495
87,87,jonas,s,s,0.555916070938,0,5.95,0.07292047085859656
88,88,gert,s,s,0.5769798755650001,0,0.24,0.027789945706047002
89,89,pfarrer,l,l,0.493449211121,0,15.0,-0.011441655376639577
90,90,kaktus,l,l,0.51837515831,0,2.4,0.02296334041559276
91,91,kaffee,l,l,0.48740506172200004,0,108.51,0.10347453857772082
92,92,bambus,l,l,0.455533981323,0,2.72,0.14036428163958733
93,93,matthias,s,s,0.540954828262,0,0.67,-0.02016037171284973
94,94,moos,l,l,0.574489116669,0,1.57,-0.06997461081067118
95,95,algen,l,l,0.581376075745,0,1.18,0.19074158659831789
96,96,tina,s,s,0.583587884903,0,10.24,0.05490618515388464
97,97,forelle,l,l,0.466918945312,0,0.63,0.03204755299721389
98,98,dietmar,s,s,0.56205201149,0,0.12,0.05231047504872231
99,99,socken,l,l,0.534550905228,0,14.21,-0.02476342209683159
100,100,efeu,l,l,0.8928580284119999,0,0.35,0.07439667632947332
101,101,stickstoff,l,l,0.43578910827600004,0,1.73,0.03643364405022145
102,102,jasmin,s,s,0.525551080704,0,1.34,-0.04330054647127274
103,103,mohammed,s,s,0.6087877750399999,0,2.56,0.09665033341694428
104,104,schmecken,l,l,0.53782081604,0,15.59,0.023985614186351874
105,105,steinmetz,l,l,0.4805920124050001,0,0.55,-0.061598479123188624
106,106,schreiner,l,l,0.517746925354,0,0.83,0.3874161207789403
107,107,saft,l,l,0.481319189072,0,12.36,-0.033261931478592584
108,108,schmied,l,l,0.611242055893,0,1.69,0.031425913154563896
109,109,maurer,l,l,0.557459115982,0,0.35,0.3676732046515412
110,110,schreiner,l,l,0.434664011002,0,0.83,0.5002759713359546
111,111,tischler,l,l,0.443362951279,0,0.47,0.5507120123364537
112,112,wasser,l,l,0.452826976776,0,222.53,0.02732110613194514
113,113,notarzt,l,l,0.443650960922,0,5.04,0.06677088016490527
114,114,hausarzt,l,l,0.46996498107900003,0,0.79,0.3993276319157555
115,115,kapitalismus,l,l,0.531274080276,0,1.85,-0.0412839481915333
116,116,urologe,l,l,0.5173869133,0,0.08,-0.050914616743461684
117,117,garage,l,l,0.48063898086499995,0,14.84,-0.0164689067583361
118,118,david,s,l,0.518663883209,0,102.01,-0.01948139172287385
119,119,jenny,s,s,0.541723966599,0,15.12,0.2106088847037594
120,120,psychiater,l,l,0.5453259944919999,0,10.51,0.05775418564693813
121,121,chirurg,l,l,0.49932384491000004,0,6.5,0.5988270662719551
122,122,professor,l,l,0.47235798835799997,0,61.77,0.15693524076160084
123,123,mechtild,s,l,0.519021987915,0,0.0,0.021549961199001842
124,124,pfarrer,l,l,0.5181620121,0,15.0,-0.008334722307309101
125,125,lehrer,l,l,0.464032888412,0,52.99,0.41304400948753134
126,126,antonia,s,s,0.523861169815,0,1.65,-0.051016899058701166
127,127,helene,s,s,0.500540971756,0,6.42,0.3054400560470807
128,128,polizist,l,l,0.591068983078,0,48.86,-0.05017991905082855
129,129,richter,l,l,0.43769288063,0,35.2,0.2276136198241845
130,130,braten,l,l,0.458945989609,0,6.02,0.15871134372468554
131,131,diktatur,l,l,0.517423152924,0,1.06,0.023717336825189603
132,132,ahorn,l,l,0.48372912406900004,0,0.39,0.00043865412368976624
133,133,filet,l,l,0.4924321174620001,0,0.51,-0.011660938530822108
134,134,elisabeth,s,s,0.547245025635,0,2.87,0.016818021896651325
135,135,aktien,l,l,0.486757993698,0,8.03,0.03364612735179191
136,136,moegen,l,l,0.475327968597,0,0.12,-0.03720401903193206
137,137,gefluegel,l,l,0.518176078796,0,0.75,0.0023631704909266443
138,138,schnitzel,l,l,0.566297054291,0,1.46,0.26999257703703466
139,139,samson,s,l,0.554639101028,0,1.5,-0.06562851814275628
140,140,algen,l,l,0.551388978958,0,1.18,0.04772240825861163
141,141,steak,l,l,0.561122179031,0,9.92,-0.02459625620535112
142,142,kriechen,l,l,0.460072040558,0,7.6,-0.00272902387859236
143,143,joghurt,l,l,0.447983026505,0,2.24,0.013433747202227972
144,144,boerse,l,l,0.518403053284,0,4.29,0.021377813757337855
145,145,jonas,s,s,0.573450088501,0,5.95,-0.018602471065066902
146,146,silber,l,l,0.55172586441,0,7.76,0.034710872314545296
147,147,buttermilch,l,l,0.5243411064150001,0,0.35,0.06349832347287132
148,148,sahne,l,l,0.533615112305,0,5.32,0.5935225701937039
149,149,quark,l,l,0.528341054916,0,0.51,0.2852377231243377
150,150,lachen,l,l,0.518300056458,0,83.9,0.06341039359824177
151,151,bier,l,l,0.518747091293,0,83.07,0.11641867142331112
152,152,burg,l,l,0.449640989304,0,9.92,-0.048888644999003805
153,153,kaese,l,l,0.496715068817,0,0.28,0.023800039829863846
154,154,kekse,l,l,0.541095972061,0,16.06,0.37680468071127177
155,155,marmor,l,l,0.49355506897,0,1.18,0.060325450217654064
156,156,keuchen,l,l,0.518221139908,0,2.32,-0.02504756014682283
157,157,schleichen,l,l,0.4553179740910001,0,5.55,0.10732367988298837
158,158,joghurt,l,l,0.471014976501,0,2.24,-0.05276464733812302
159,159,ulrike,s,s,0.617181062698,0,0.98,-0.027533970274305604
160,160,jaqueline,s,s,0.492327928543,0,0.35,0.1861240083936076
161,161,windbeutel,l,l,0.557734012604,0,0.47,0.01839432413998625
162,162,karpfen,l,l,0.41352105140699996,0,1.73,0.17062665912399747
163,163,polizist,l,l,0.454900026321,0,48.86,-0.0226420241672812
164,164,gesine,s,s,0.5566539764399999,0,0.0,-0.008010707547096473
165,165,jacke,l,l,0.451699972153,0,27.8,0.002751761655558929
166,166,waffeln,l,l,0.4900050163270001,0,3.58,0.13646904256765766
167,167,katerina,s,s,0.549706935883,0,0.24,0.05631970500593182
168,168,kekse,l,l,0.517641067505,0,16.06,0.07112060264692012
169,169,nina,s,s,0.496917963028,0,18.7,0.008497061327678558
170,170,gert,s,s,0.539610862732,0,0.24,0.10719284353378873
171,171,michael,s,s,0.531399011612,0,109.77,0.28961370322715063
172,172,kotzen,l,l,0.518874883652,0,12.01,-0.023748846047537457
173,173,broetchen,l,l,0.566200971603,0,5.75,0.07924821337547583
174,174,kuchen,l,l,0.47522187233,0,37.8,0.6021820752409526
175,175,mezzo-mix,l,l,0.522211074829,0,0.0,0.0
176,176,filet,l,l,0.5316691398619999,0,0.51,0.0
177,177,hammer,l,l,0.47981309890699997,0,14.88,0.06504028361739553
178,178,pepsi,l,l,0.46427488327,0,1.69,0.01751028107454974
179,179,moritz,s,s,0.546720981598,0,1.06,0.014117081295419547
180,180,spucken,l,l,0.495797157288,0,3.98,0.0166846327077031
181,181,sprite,l,l,0.545053005219,0,0.12,0.035636644793791805
182,182,affe,l,l,0.43501496315,0,16.77,0.08600755188668413
183,183,hendrik,s,s,0.533789873123,0,0.2,0.039730109015118184
184,184,fanta,l,l,0.5501489639280001,0,1.85,0.0491780469285424
185,185,cola,l,l,0.519071102142,0,11.89,0.21653504337331345
186,186,rum,l,l,0.53195810318,0,86.81,0.1528824552475518
187,187,scotch,l,l,0.523797988892,0,9.37,0.12871169660167256
188,188,quark,l,l,0.498342037201,0,0.51,0.1398399177876374
189,189,thomas,s,s,0.624177932739,0,24.65,0.027335120139751104
190,190,hochachten,l,l,0.450261831284,0,0.0,0.0
191,191,whisky,l,l,0.5550491809839999,0,10.0,0.0
192,192,ingmar,s,s,0.527979135513,0,0.16,-0.016712636146203524
193,193,richter,l,l,0.585813999176,0,35.2,0.01899416112159397
194,194,thomas,s,s,0.530730962753,0,24.65,-0.006695173903154682
195,195,wein,l,l,0.491706132889,0,48.39,-0.006358114454457211
196,196,bier,l,l,0.5225529670719999,0,83.07,0.462831896519707
197,197,katerina,s,s,0.582691907883,0,0.24,0.0072476434334724565
198,198,saft,l,l,0.489347934723,0,12.36,0.053935702288965985
199,199,ledermantel,l,l,0.522629976273,0,0.08,-0.0247139388241808
200,200,schnitzel,l,l,0.528927087784,0,1.46,0.03509564768470889
201,201,sauerstoff,l,l,0.4433741569520001,0,9.02,-0.030180397562874474
202,202,kupfer,l,l,0.5369279384610001,0,0.91,0.24889633678319745
203,203,trinkschokolade,l,l,0.48204803466799995,0,0.04,0.07461275442411404
204,204,joachim,s,s,0.653084993362,0,0.12,-0.0002496393724772624
205,205,moritz,s,s,0.518517017365,0,1.06,0.16490540664066022
206,206,chirurg,l,l,0.518038034439,0,6.5,0.05941016747769885
207,207,zinsen,l,l,0.47910094261200004,0,4.88,-0.05527876313185609
208,208,wasser,l,l,0.454837083817,0,222.53,0.07129263054585537
209,209,samson,s,s,0.7023530006409999,0,1.5,0.05895240661079368
210,210,kaffee,l,l,0.4939160346980001,0,108.51,0.02114035555638919
211,211,tee,l,l,0.425186872482,0,59.06,0.5878897147515861
212,212,wandern,l,l,0.526705980301,0,7.09,0.09722320405858614
213,213,schal,l,l,0.425999164581,0,4.06,-0.060352100217886874
214,214,krawatte,l,l,0.4617190361020001,0,10.75,0.3659018269981688
215,215,hemd,l,l,0.44746708869900004,0,28.43,0.5066021094812195
216,216,leonie,s,s,0.602547883987,0,0.43,0.04566418768225872
217,217,huette,l,l,0.44098615646399997,0,17.99,0.005625932461867723
218,218,gesine,s,s,0.529626131058,0,0.0,-0.003341061165853228
219,219,pullover,l,l,0.463752031326,0,5.24,0.0036650086850966187
220,220,socken,l,l,0.545323848724,0,14.21,0.2463395714277509
221,221,benjamin,s,s,0.597638845444,0,7.36,-0.06717463324318823
222,222,hose,l,l,0.535844802856,0,40.4,0.03130294518921771
223,223,jaqueline,s,s,0.48980307579,0,0.35,-0.027278735721676918
224,224,inga,s,l,0.452599048615,0,1.38,0.07871604096372707
225,225,maurer,l,l,0.582360029221,0,0.35,0.0064395692837511155
226,226,moos,l,l,0.472723960876,0,1.57,0.10257458653697586
227,227,tulpe,l,l,0.441050052643,0,0.55,0.028735548011991977
228,228,quarz,l,l,0.47004199028000004,0,0.98,-0.0552234529749703
229,229,bogen,l,l,0.470857858658,0,7.76,-0.007202870371446056
230,230,jacke,l,l,0.749778985977,0,27.8,0.11230884267432813
231,231,amsel,l,l,0.47134494781499997,0,0.63,0.17245101255269565
232,232,hausarzt,l,l,0.475545167923,0,0.79,0.004721826964563397
233,233,jeans,l,l,0.523008108139,0,5.28,-0.002844162948725157
234,234,ledermantel,l,l,0.549432992935,0,0.08,0.08643967665807382
235,235,inga,s,s,0.549772977829,0,1.38,0.01353470390193944
236,236,schal,l,l,0.468127012253,0,4.06,0.07033283944524063
237,237,wein,l,l,0.5249059200289999,0,48.39,0.17972435085020474
238,238,antonia,s,s,0.5177888870239999,0,1.65,0.02534461038772341
239,239,rock,l,l,0.47590303421,0,26.18,-0.059401129701772686
240,240,gitarre,l,l,0.48465704917900004,0,9.29,0.05816479337788533
241,241,schlagzeug,l,l,0.421144008636,0,1.54,0.5113731022034949
242,242,tennis,l,l,0.523237943649,0,4.96,0.028854880619117625
243,243,floete,l,l,0.482543945312,0,5.47,0.021249040602049938
244,244,lieben,l,l,0.457577943802,0,136.03,0.014214037573786784
245,245,sprite,l,l,0.467489957809,0,0.12,-0.025410704446995242
246,246,trinkschokolade,l,l,0.485018968582,0,0.04,0.13787105242852266
247,247,mechtild,s,s,0.61630320549,0,0.0,0.0222295443200354
248,248,klavier,l,l,0.43916702270499997,0,11.42,0.018121042960654817
249,249,raub,l,l,0.5361299514769999,0,5.24,0.03774854715840173
250,250,demokratie,l,l,0.534002065659,0,8.07,-0.013981784973806996
251,251,fussball,l,l,0.464265823364,0,16.85,0.02353593294560428
252,252,schmied,l,l,0.47344899177599997,0,1.69,-0.08355345550562862
253,253,geige,l,l,0.464992046356,0,3.31,0.11423029185371353
254,254,mezzo-mix,l,l,0.6805279254909999,0,0.0,0.0
255,255,qualle,l,l,0.454149007797,0,0.71,0.0
256,256,bogen,l,l,0.430732011795,0,7.76,0.033963888015762334
257,257,aylin,s,s,0.572098016739,0,0.0,-0.05755274019258001
258,258,sehen,l,l,0.479295969009,0,1388.01,0.05337758758196853
259,259,schwert,l,l,0.470695018768,0,63.66,-0.037518916999741546
260,260,laufen,l,l,0.47569894790600004,0,136.66,0.03920333744811326
261,261,keule,l,l,0.518147945404,0,1.77,0.12056692508744445
262,262,spatz,l,l,0.484848976135,0,2.44,0.10681387805319707
263,263,beil,l,l,0.4471180439,0,1.69,0.1332806018842803
264,264,axt,l,l,0.4371860027310001,0,6.93,0.3295928441790002
265,265,saege,l,l,0.44398212432899997,0,3.11,0.4192127200594977
266,266,gnu,l,l,0.447824001312,0,0.04,-0.017981306436270914
267,267,feile,l,l,0.420026779175,0,0.43,-0.04691536953751595
268,268,rum,l,l,0.441648006439,0,86.81,0.09380894853087128
269,269,zange,l,l,0.482784032822,0,2.36,0.041599417183605256
270,270,kaktus,l,l,0.48789095878600003,0,2.4,-0.0030926833402073178
271,271,jagen,l,l,0.45197010040299995,0,38.03,0.0703809350596198
272,272,loetkolben,l,l,0.44752907753,0,0.12,-0.0037913679935363135
273,273,keule,l,l,0.43839597702,0,1.77,0.0777265084136979
274,274,zange,l,l,0.486838102341,0,2.36,0.3634957187613765
275,275,hammer,l,l,0.49335503578199996,0,14.88,0.15996210119356066
276,276,jochen,s,l,0.485601902008,0,0.2,-0.07692643205912897
277,277,jakob,s,l,0.426234960556,0,6.65,0.22619444007338085
278,278,gerhard,s,s,0.495091915131,0,2.68,0.2517071618476027
279,279,max,s,s,0.4208030700680001,0,40.47,0.2466332134045176
280,280,mechtild,s,s,0.39421319961499995,0,0.0,0.06556964307307465
281,281,garage,l,l,0.560342073441,0,14.84,-0.038711029943456335
282,282,johanna,s,s,0.454039096832,0,1.81,-0.10031892523666698
283,283,panther,l,l,0.549683094025,0,1.85,-0.002586714448481284
284,284,halle,l,l,0.49187898635899996,0,9.41,-0.0014500461064975204
285,285,kuchen,l,l,0.441655874252,0,37.8,-0.02325819851475528
286,286,huette,l,l,0.5009269714360001,0,17.99,0.02104789877912839
287,287,haus,l,l,0.439706087112,0,406.43,0.1445082671415267
288,288,gold,l,l,0.446874141693,0,53.47,0.07424271709752259
289,289,inga,s,s,0.614495992661,0,1.38,0.042309123870933135
290,290,notarzt,l,l,0.48005199432400003,0,5.04,0.026901049922397915
291,291,burg,l,l,0.519654035568,0,9.92,-0.09554078009360334
292,292,adler,l,l,0.6758220195769999,0,6.58,0.012744933424701442
293,293,sprechen,l,l,0.473211050034,0,332.3,-0.06811250861228274
294,294,beton,l,l,0.4309291839600001,0,3.07,-0.014823634312487169
295,295,jenny,s,l,0.433199882507,0,15.12,0.00755524181683333
296,296,marmor,l,l,0.533714056015,0,1.18,0.0025088359852062977
297,297,granit,l,l,0.4864921569820001,0,0.71,0.7144170165886969
298,298,quarz,l,l,0.432791948318,0,0.98,0.4832827775592974
299,299,diamant,l,l,0.450436115265,0,5.59,0.2981799946389121
300,300,beissen,l,l,0.44776391983,0,14.02,-0.008200187060434117
301,301,olaf,s,l,0.555819034576,0,0.55,0.007201035525068336
302,302,gold,l,l,0.552031040192,0,53.47,0.013625949540722607
303,303,haus,l,l,0.47649812698399996,0,406.43,0.07424271709752259
304,304,silber,l,l,0.502326965332,0,7.76,0.02489101920863731
305,305,nina,s,s,0.490530014038,0,18.7,0.05033283691531746
306,306,jeans,l,l,0.6633698940280001,0,5.28,0.06221910302793125
307,307,eisen,l,l,0.45336699485799997,0,8.9,0.05616373515950916
308,308,kupfer,l,l,0.447178125381,0,0.91,0.7265271469270432
309,309,platin,l,l,0.460493087769,0,1.06,0.21490915385578768
310,310,chlor,l,l,0.443111181259,0,0.63,0.182604099197915
311,311,stickstoff,l,l,0.460220098495,0,1.73,0.5718332652899274
312,312,helium,l,l,0.49718785285899997,0,1.02,0.5504580588538499
313,313,sagen,l,l,0.452632904053,0,1458.48,0.043896086512447835
314,314,loewe,l,l,0.500236034393,0,5.51,-0.014559180697455638
315,315,sauerstoff,l,l,0.5014829635620001,0,9.02,0.008572197213556895
316,316,rose,l,l,0.458930969238,0,45.12,-0.04067925659629007
317,317,basketball,l,l,0.576352834702,0,7.05,0.03881080944622236
318,318,methan,l,l,0.627552986145,0,0.87,0.15047266004158658
319,319,riechen,l,l,0.52548289299,0,20.47,0.06636423777638918
320,320,schmecken,l,l,0.448474168777,0,15.59,0.5541222246864459
321,321,cola,l,l,0.436331033707,0,11.89,0.14549478068505348
322,322,tee,l,l,0.42478990554799995,0,59.06,0.2619368198566233
323,323,fuehlen,l,l,0.474457979202,0,0.2,0.018504057975672655
324,324,sehen,l,l,0.413803100586,0,1388.01,0.20902987663525
325,325,hoeren,l,l,0.430183172226,0,0.51,0.7898357483789887
326,326,wandern,l,l,0.44869899749799996,0,7.09,0.1843588058503603
327,327,joachim,s,s,0.5605649948120001,0,0.12,-0.016638363782979722
328,328,gehen,l,l,0.497586965561,0,1440.25,-0.02494668258685737
329,329,riechen,l,l,0.494866132736,0,20.47,0.23550305995113416
330,330,rennen,l,l,0.485653877258,0,54.41,0.0394533457890918
331,331,wuergen,l,l,0.518944978714,0,2.28,0.04010189051466734
332,332,sprinten,l,l,0.593415975571,0,0.16,0.14006404946230813
333,333,huepfen,l,l,0.474685907364,0,3.66,0.373868205552157
334,334,inga,s,s,0.5869090557100001,0,1.38,0.014043799513674644
335,335,klavier,l,l,0.500801086426,0,11.42,0.08570724917040863
336,336,leopard,l,l,0.7284300327300001,0,1.89,0.03419485629781678
337,337,kriechen,l,l,0.482647895813,0,7.6,-0.03327776026496256
338,338,sebastian,s,s,0.590419054031,0,19.13,0.06806709389552643
339,339,ricarda,s,s,0.484616041183,0,0.08,0.1365677073932086
340,340,schleichen,l,l,0.492234945297,0,5.55,0.056457942366013834
341,341,christian,s,s,0.420457839966,0,10.63,-0.07136699577242228
342,342,springen,l,l,0.554896831512,0,35.08,-0.02473133502925025
343,343,springen,l,l,0.39241003990199996,0,35.08,1.0000000000000002
344,344,hose,l,l,0.404592990875,0,40.4,0.07383664824442565
345,345,rennen,l,l,0.396446943283,0,54.41,0.015482546057482846
346,346,gehen,l,l,0.407660007477,0,1440.25,0.07738068094241764
347,347,laufen,l,l,0.460252046585,0,136.66,0.5911076173245725
348,348,thomas,s,s,0.62202000618,0,24.65,-0.05155086556968918
349,349,david,s,s,0.41622090339699996,0,102.01,0.25954176246965105
350,350,joggen,l,l,0.481950998306,0,2.99,-0.06333067041968628
351,351,sprinten,l,l,0.478371143341,0,0.16,0.26652908683840226
352,352,rugby,l,l,0.47961807251,0,0.63,-0.029108076638806175
353,353,tennis,l,l,0.477192163467,0,4.96,0.26761299538995736
354,354,fussball,l,l,0.400643825531,0,16.85,0.32100084958424563
355,355,husten,l,l,0.582240104675,0,7.05,-0.06989510456490662
356,356,lukas,s,s,0.552454948425,0,2.64,0.024089088301226386
357,357,fledermaus,l,l,0.475139856339,0,3.39,0.059910737717304735
358,358,urologe,l,l,0.496050834656,0,0.08,0.029775076396538924
359,359,loetkolben,l,l,0.437793970108,0,0.12,0.05537266614165347
360,360,basketball,l,l,0.46815609931900004,0,7.05,-0.01040884067369242
361,361,jonas,s,s,0.615434169769,0,5.95,-0.028888101479128826
362,362,golf,l,l,0.56268119812,0,15.51,-0.021597479404708627
363,363,aktien,l,l,0.487312078476,0,8.03,0.013651535872971384
364,364,storch,l,l,0.450147151947,0,0.75,0.03804942215046463
365,365,steinmetz,l,l,0.545847892761,0,0.55,0.035855743432625965
366,366,zinsen,l,l,0.520938158035,0,4.88,-0.046716228245078664
367,367,schwert,l,l,0.478898048401,0,63.66,0.029441508733664006
368,368,schulden,l,l,0.5176320075990001,0,34.8,0.015536338536616541
369,369,kredit,l,l,0.42442607879600003,0,8.66,0.4538649888947719
370,370,whisky,l,l,0.554826021194,0,10.0,0.008877636312426742
371,371,boerse,l,l,0.45458483696,0,4.29,0.011191551946721938
372,372,ulrike,s,s,0.544751167297,0,0.98,0.018803390785817786
373,373,johannes,s,s,0.428552865982,0,3.03,0.2032154582308896
374,374,steak,l,l,0.51858997345,0,9.92,0.0268424560346308
375,375,kapitalismus,l,l,0.5432610511779999,0,1.85,-0.027098820354987896
376,376,kommunismus,l,l,0.494431018829,0,2.01,0.6634912982257278
377,377,monarchie,l,l,0.518358945847,0,0.75,0.19063381729549075
378,378,bambus,l,l,0.518117904663,0,2.72,-0.039920309389152135
379,379,diktatur,l,l,0.452509880066,0,1.06,-0.04200152543209835
380,380,platin,l,l,0.556293010712,0,1.06,-0.029839048852866007
381,381,monarchie,l,l,0.439556121826,0,0.75,0.034478187656716015
382,382,demokratie,l,l,0.425452947617,0,8.07,0.3667700549613518
383,383,hai,l,l,0.544209003448,0,8.15,-0.08486069025083667
384,384,hochachten,l,l,0.47150397300700003,0,0.0,0.0
385,385,verehren,l,l,0.44064784049999994,0,2.05,0.0
386,386,kredit,l,l,0.438514947891,0,8.66,0.029269956668754836
387,387,friedrich,s,s,0.6130630970000001,0,3.27,-0.01931622293369824
388,388,singen,l,l,0.456346035004,0,61.14,-0.012286850134681313
389,389,schulden,l,l,0.46531891822800003,0,34.8,0.0817345009101733
390,390,geige,l,l,0.565259933472,0,3.31,0.106441590690227
391,391,begehren,l,l,0.439631938934,0,2.01,0.0381369425766612
392,392,bettina,s,s,0.5975041389469999,0,0.16,0.0217629851050908
393,393,helene,s,s,0.532855033875,0,6.42,0.32771012158733565
394,394,lieben,l,s,0.442255020142,0,136.03,0.1631312588439563
395,395,moegen,l,l,0.521044015884,0,0.12,0.2509346516126298
396,396,fragen,l,l,0.48009991645800004,0,350.05,0.06418023455994752
397,397,verschlingen,l,l,0.518785953522,0,2.64,0.029043630483322525
398,398,axt,l,l,0.546344041824,0,6.93,0.1375166416648747
399,399,sagen,l,l,0.448060035706,0,1458.48,-0.00030959865158562347
400,400,diamant,l,l,0.491276979446,0,5.59,0.03520485073204264
401,401,katrin,s,l,0.559374094009,0,7.99,-0.013358576369172709
402,402,hemd,l,l,0.5636508464810001,0,28.43,0.04016527955208722
403,403,brandstiftung,l,l,0.518244028091,0,2.52,-0.028448215719265976
404,404,singen,l,l,0.44713997840899994,0,61.14,0.03127026660358366
405,405,sprechen,l,l,0.429666042328,0,332.3,0.3856312739238298
406,406,christian,s,l,0.46328496932999996,0,10.63,-0.05435192106212823
407,407,helium,l,l,0.5745398998260001,0,1.02,-0.011967965387796854
408,408,eisen,l,l,0.54159784317,0,8.9,0.28546430632578673
409,409,lachen,l,l,0.493260860443,0,83.9,0.05991821406629137
410,410,benjamin,s,s,0.518846035004,0,7.36,0.025315302632298392
411,411,spucken,l,l,0.554339170456,0,3.98,-0.027815369657878532
412,412,keuchen,l,l,0.5180311203,0,2.32,0.1172285346901179
413,413,verfolgen,l,l,0.517930030823,0,41.89,0.07519015425589358
414,414,husten,l,l,0.431296825409,0,7.05,0.0139833229073799
415,415,golf,l,l,0.458678007126,0,15.51,0.02197067194641053
416,416,wuergen,l,l,0.45605897903399994,0,2.28,-0.00023489145816915123
417,417,kotzen,l,l,0.396643877029,0,12.01,0.186005362585038
418,418,benjamin,s,s,0.476734876633,0,7.36,-0.03879176629666395
419,419,erpressung,l,l,0.520745038986,0,6.3,0.023271564690884542
420,420,einbruch,l,l,0.6215720176699999,0,10.12,0.1979240558799884
421,421,brandstiftung,l,l,0.5176861286159999,0,2.52,0.22602050771614185
422,422,huepfen,l,l,0.56286907196,0,3.66,0.052910688444697714
423,423,methan,l,l,0.570156812668,0,0.87,0.026290782984247824
424,424,joggen,l,l,0.527682065964,0,2.99,0.021071377368135902
425,425,raub,l,l,0.469218969345,0,5.24,0.11122628188399804
426,426,angreifen,l,l,0.518794059753,0,26.14,0.03485666082561675
427,427,mord,l,l,0.498337030411,0,65.91,-0.035395341318354145
428,428,pepsi,l,l,0.46954703331000003,0,1.69,0.043089553034661165
429,429,beissen,l,l,0.491013050079,0,14.02,-0.07589483022888666
430,430,verschlingen,l,l,0.44363498687700004,0,2.64,0.3389628648218481
431,431,angreifen,l,l,0.438889026642,0,26.14,0.3177420895619352
432,432,verfolgen,l,l,0.4509170055390001,0,41.89,0.4779836250476209
433,433,rock,l,l,0.418812036514,0,26.18,-0.03623759609932711
434,434,eiche,l,l,0.427885055542,0,1.93,0.02541162139831396
435,435,efeu,l,l,0.465715169907,0,0.35,0.30176710983903515
436,436,hoeren,l,l,0.44341397285499995,0,0.51,0.03872858293670088
437,437,jagen,l,l,0.43850398063699997,0,38.03,0.30541779623997845
438,0,lehrer,s,miss,999.0,1,52.99,0.0
439,1,jagen,s,miss,999.0,1,38.03,-0.007407866044769948
440,2,jagen,s,s,0.6925046432299999,1,38.03,1.0
441,3,burg,s,s,0.71084456885,1,9.92,0.025290043474323363
442,4,verfolgen,s,s,0.466867321753,1,41.89,-0.004081200245595237
443,5,nelly,l,l,0.595478589297,1,0.98,0.0038904769307903353
444,6,schmied,s,s,0.8223338683020001,1,1.69,-0.01812084935774295
445,7,puma,s,s,0.71604483691,1,1.18,0.00025471795115663523
446,8,sebastian,l,l,0.610348961083,1,19.13,0.0460478986139064
447,9,jenny,l,l,0.497554462752,1,15.12,0.19197872679395486
448,10,lea,l,l,0.45493706862899996,1,0.94,0.2363801610246798
449,11,jacke,s,s,0.657951085828,1,27.8,0.004510969123397239
450,12,angreifen,s,s,0.5513306228679999,1,26.14,0.040289640606271764
451,13,verschlingen,s,s,0.458943755424,1,2.64,0.3177420895619352
452,14,nina,l,l,0.516713345074,1,18.7,-0.030292783670063363
453,15,verschlingen,s,s,0.474124176078,1,2.64,-0.030292783670063363
454,16,beissen,s,s,0.532826050592,1,14.02,0.3389628648218481
455,17,sebastian,l,l,0.566676545481,1,19.13,0.02744059057838841
456,18,hemd,s,s,0.519150543027,1,28.43,-0.004776233052811322
457,19,pullover,s,s,0.4347406986640001,1,5.24,0.5572863350557878
458,20,garage,s,s,0.489400391118,1,14.84,0.042796622666618725
459,21,lea,l,l,0.588680179673,1,0.94,-0.016485900355534364
460,22,golf,s,s,0.524716027314,1,15.51,0.005017215106832285
461,23,mord,s,s,0.441920147685,1,65.91,0.04522908054547455
462,24,klaus,l,l,0.44578014925399995,1,2.48,0.008068509152038763
463,25,raub,s,s,0.457295150671,1,5.24,0.0017107983835334946
464,26,brandstiftung,s,s,0.548217304517,1,2.52,0.342473970235469
465,27,einbruch,s,s,0.47586771991300003,1,10.12,0.22602050771614185
466,28,erpressung,s,s,0.450945349759,1,6.3,0.1979240558799884
467,29,fragen,s,s,0.4771220279510001,1,350.05,0.039126545172132834
468,30,huette,s,s,0.532084071543,1,17.99,0.006838236829058636
469,31,kotzen,s,s,0.399763764115,1,12.01,-0.020763458280309784
470,32,wuergen,s,s,0.39690618263599997,1,2.28,0.186005362585038
471,33,husten,s,s,0.362400950107,1,7.05,0.22159574319578354
472,34,keuchen,s,s,0.42021031148000004,1,2.32,0.3137722535131055
473,35,aktien,s,s,0.455815041554,1,8.03,-0.009410102587412995
474,36,jaqueline,l,l,0.516932731378,1,0.35,0.05336986500908388
475,37,spucken,s,s,0.5172739989940001,1,3.98,-0.005539374401350197
476,38,lachen,s,s,0.483035622223,1,83.9,0.2167338628160461
477,39,gold,s,s,0.537021332653,1,53.47,0.08824159706430491
478,40,eisen,s,s,0.381019705848,1,8.9,0.3025225143364809
479,41,sprechen,s,s,0.494865804445,1,332.3,-0.01406582584239428
480,42,singen,s,s,0.635826853279,1,61.14,0.3856312739238298
481,43,waffeln,s,s,0.31062706426,1,3.58,0.004010981727828678
482,44,bier,s,s,0.37665721122199997,1,83.07,0.2647142583460988
483,45,polizist,s,s,0.34299189044399997,1,48.86,-0.010676447679393105
484,46,zange,s,s,0.38914940122,1,2.36,0.04188677291760428
485,47,sagen,s,s,0.414389518031,1,1458.48,-0.045060722883998566
486,48,inga,l,s,0.37414645683,1,1.38,0.00912117556777976
487,49,fragen,s,s,0.599649495096,1,350.05,-0.007274225183487708
488,50,pfarrer,s,s,0.454356315022,1,15.0,-0.04495605089507805
489,51,joggen,s,s,0.424876867852,1,2.99,-0.030451438521683038
490,52,moegen,s,s,0.388668718573,1,0.12,0.07149811138138266
491,53,lachs,s,s,0.591367982677,1,3.5,-0.053915028430500056
492,54,tiger,s,s,0.392454736051,1,17.24,0.1350731248591925
493,55,lieben,s,s,0.456398788723,1,136.03,-0.017005254893466826
494,56,rum,s,s,0.457362292334,1,86.81,0.05487981175822067
495,57,begehren,s,s,0.516830094508,1,2.01,-0.055041185573688464
496,58,verehren,s,s,0.403505305701,1,2.05,0.13922003390888812
497,59,tulpe,s,s,0.38869266718400003,1,0.55,0.03504412624917249
498,60,hochachten,s,s,0.458066210151,1,0.0,0.0
499,61,professor,s,s,0.554362259398,1,61.77,0.0
500,62,demokratie,s,s,0.482777319499,1,8.07,-0.010481186767356805
501,63,moritz,l,l,0.71484997269,1,1.06,-0.03953257367444731
502,64,diktatur,s,s,0.5690748270139999,1,1.06,-0.0034435039170527125
503,65,monarchie,s,s,0.471773791767,1,0.75,0.3110142475085052
504,66,saege,s,s,0.47173915186399995,1,3.11,0.10386193911262688
505,67,schleichen,s,s,0.561809847248,1,5.55,-0.015592354653691718
506,68,kommunismus,s,s,0.424694687361,1,2.01,-0.0500244910997667
507,69,kapitalismus,s,s,0.410133081547,1,1.85,0.6634912982257278
508,70,kupfer,s,s,0.516858319636,1,0.91,-0.04492015890050483
509,71,sagen,s,s,0.364742353675,1,1458.48,0.05812332860290124
510,72,boerse,s,s,0.3966465968990001,1,4.29,-0.03440060505636545
511,73,kredit,s,s,0.423817997449,1,8.66,0.18596480796542275
512,74,schulden,s,s,0.40404072799699997,1,34.8,0.4538649888947719
513,75,katerina,l,l,0.474997872429,1,0.24,0.009687295877878756
514,76,zinsen,s,s,0.443907026376,1,4.88,0.00534546339089357
515,77,katrin,l,l,0.549346310028,1,7.99,-0.07440422947001908
516,78,svenja,l,l,0.402051283396,1,0.0,0.3709119651022175
517,79,klaus,l,l,0.42678976251,1,2.48,0.237603326668095
518,80,joachim,l,l,0.49329075618900003,1,0.12,0.3268558367963658
519,81,aktien,s,s,0.581624322571,1,8.03,-0.06687411284664085
520,82,golf,s,s,0.47457492299099996,1,15.51,0.013651535872971384
521,83,basketball,s,s,0.420250510972,1,7.05,0.08756051477944514
522,84,fussball,s,l,0.575424627983,1,16.85,0.4673407597499465
523,85,aylin,l,l,0.578120128775,1,0.0,-0.025936296670637227
524,86,demokratie,s,s,0.5170285257630001,1,8.07,0.04365841282386587
525,87,tennis,s,s,0.653621948208,1,4.96,-0.027405786191099082
526,88,boerse,s,s,0.5351939687389999,1,4.29,0.09054056264665072
527,89,samson,l,s,0.836780007754,1,1.5,-0.00915319634868613
528,90,brandstiftung,s,s,0.498721529497,1,2.52,0.00726699782316543
529,91,rugby,s,s,0.791663405776,1,0.63,-0.008395321827243417
530,92,jochen,l,l,0.661266684358,1,0.2,0.06677621363300182
531,93,sprinten,s,s,0.471702373587,1,0.16,0.02625502583589773
532,94,joggen,s,s,0.5170721464670001,1,2.99,0.26652908683840226
533,95,orchidee,s,s,0.462177672132,1,2.13,-0.00894696443766484
534,96,hans,l,l,0.41344953537900003,1,10.59,0.016905758282964138
535,97,laufen,s,s,0.48184118571199996,1,136.66,-0.04750584036803192
536,98,lea,l,l,0.560617548937,1,0.94,-0.019101439823820454
537,99,rennen,s,s,0.5302939135,1,54.41,0.02055490211280017
538,100,springen,s,s,0.44744414952600003,1,35.08,0.41439389081276745
539,101,schleichen,s,s,0.516798020457,1,5.55,0.1870279986037164
540,102,keule,s,l,0.5378415723100001,1,1.77,0.03292955934692593
541,103,kriechen,s,s,0.47521512041599995,1,7.6,0.08361797541360186
542,104,hai,s,s,0.646087546658,1,8.15,0.04265343985753154
543,105,hans,l,l,0.580276358349,1,10.59,-0.01111542381855385
544,106,huepfen,s,s,0.389668572694,1,3.66,0.024473209636207808
545,107,mechtild,l,s,0.517191889463,1,0.0,0.05872481323317302
546,108,michael,l,l,0.589779249451,1,109.77,0.09331594656444138
547,109,gehen,s,s,0.517284690286,1,1440.25,-0.023960290744737985
548,110,gehen,s,s,0.475230515993,1,1440.25,1.0
549,111,marmor,s,s,0.624316128378,1,1.18,0.013909520831027034
550,112,lama,s,l,0.5279935646689999,1,4.09,-0.06816317511268044
551,113,wuergen,s,s,0.471941859578,1,2.28,0.06438222668691382
552,114,geige,s,s,0.490220630832,1,3.31,0.04877463717216629
553,115,urologe,s,s,0.563887388504,1,0.08,-0.018982210692996083
554,116,wandern,s,s,0.524353376997,1,7.09,-0.004661891960814903
555,117,katrin,l,l,0.476439920429,1,7.99,-0.006274789538893559
556,118,quark,s,s,0.489520561823,1,0.51,-0.04146452978823832
557,119,louise,l,l,0.516996879422,1,7.99,-0.0006957582304235421
558,120,hoeren,s,s,0.586715111276,1,0.51,-0.03057609646093645
559,121,sehen,s,s,0.516851904802,1,1388.01,0.7898357483789887
560,122,schwert,s,s,0.378834823496,1,63.66,-0.037518916999741546
561,123,storch,s,s,0.40976872062299996,1,0.75,0.02814978786300121
562,124,ricarda,l,l,0.6399259133030001,1,0.08,0.033791911812012305
563,125,sahne,s,s,0.567429643474,1,5.32,0.06379173138514421
564,126,fuehlen,s,s,0.43522266426600004,1,0.2,0.07255308930015875
565,127,schmecken,s,s,0.435213255871,1,15.59,0.12510770832888538
566,128,jenny,l,l,0.521585602779,1,15.12,-0.002533335898655231
567,129,jasmin,l,l,0.450614773436,1,1.34,0.232333264072653
568,130,felix,l,l,0.487182579469,1,6.69,0.21323588630913345
569,131,affe,s,s,0.583544487308,1,16.77,0.032551355879790037
570,132,riechen,s,s,0.427166525333,1,20.47,0.06184689959503789
571,133,methan,s,s,0.82326273201,1,0.87,0.06636423777638918
572,134,panther,s,s,0.563443484076,1,1.85,-0.12473595201853498
573,135,mechtild,l,l,0.572220219357,1,0.0,0.0003867455952301464
574,136,laufen,s,s,0.49809758283699995,1,136.66,0.013289579242625405
575,137,sauerstoff,s,s,0.560702224378,1,9.02,0.04453347303481922
576,138,rock,s,s,0.5912084679,1,26.18,0.05148979070752941
577,139,helium,s,s,0.458528076066,1,1.02,0.04910728803454041
578,140,stickstoff,s,s,0.518136576284,1,1.73,0.5504580588538499
579,141,jenny,l,l,0.525503337616,1,15.12,0.01515227281154648
580,142,chlor,s,s,0.516773644253,1,0.63,0.0065185400978579906
581,143,rose,s,s,0.599815424648,1,45.12,-0.030530071991743093
582,144,platin,s,s,0.5654868130799999,1,1.06,-0.0246642162991559
583,145,jonas,l,l,0.473155968299,1,5.95,-0.07979703432794369
584,146,lukas,l,l,0.454734788451,1,2.64,0.1619472414988221
585,147,kotzen,s,s,0.557768948143,1,12.01,-0.018896579080666245
586,148,kupfer,s,s,0.487400255166,1,0.91,-0.006762475609554731
587,149,eisen,s,s,0.5210890969609999,1,8.9,0.7265271469270432
588,150,silber,s,s,0.534138519608,1,7.76,0.3137884985416305
589,151,sven,l,l,0.610734704649,1,2.68,0.033269843992499284
590,152,schreiner,s,s,0.516813843686,1,0.83,-0.04078389432189425
591,153,klavier,s,s,0.6619701745800001,1,11.42,0.07802234188844999
592,154,gold,s,s,0.474586897297,1,53.47,0.040740792568392914
593,155,tischler,s,s,0.470906510251,1,0.47,0.08673898145734618
594,156,david,l,l,0.564567357767,1,102.01,0.057609816912219634
595,157,monarchie,s,s,0.656055725005,1,0.75,-0.08087119848400222
596,158,diamant,s,s,0.428145424463,1,5.59,0.01744193710718819
597,159,quarz,s,s,0.476119607862,1,0.98,0.2981799946389121
598,160,granit,s,s,0.469101384282,1,0.71,0.4832827775592974
599,161,fichte,s,s,0.480357655324,1,0.08,0.09295830475474158
600,162,marmor,s,s,0.561879554763,1,1.18,0.07882953052900908
601,163,beton,s,s,0.553735746827,1,3.07,0.4567885692766092
602,164,katerina,l,l,0.5365192672469999,1,0.24,0.030745798576235824
603,165,jeans,s,l,0.435470703349,1,5.28,-0.009483263963827312
604,166,gerhard,l,s,0.476280405652,1,2.68,-0.008937994206445121
605,167,burg,s,s,0.6311791136980001,1,9.92,0.04916566349711608
606,168,haus,s,s,0.738945260819,1,406.43,0.12102176981609228
607,169,amsel,s,s,0.5227103317740001,1,0.63,0.0060854280658955325
608,170,huette,s,s,0.49951782054300004,1,17.99,0.11146945724344473
609,171,birke,s,s,0.7067134348909999,1,0.24,0.05113544164843753
610,172,spatz,s,s,0.5204997902040001,1,2.44,0.045672948485519685
611,173,halle,s,s,0.530059986981,1,9.41,-0.008512204843497503
612,174,garage,s,s,0.412857235118,1,14.84,0.14649927432625426
613,175,hammer,s,s,0.531349362689,1,14.88,0.04121133725615556
614,176,elisabeth,l,l,0.564545119763,1,2.87,-0.04990387513107822
615,177,zange,s,s,0.5592913950680001,1,2.36,0.016374808256452836
616,178,loetkolben,s,s,0.45598225412,1,0.12,0.21424944592705208
617,179,feile,s,s,0.464566972863,1,0.43,0.1963609373789044
618,180,saege,s,s,0.362286338874,1,3.11,0.2701620148978184
619,181,axt,s,s,0.489884922688,1,6.93,0.4192127200594977
620,182,karpfen,s,s,0.48212258180100004,1,1.73,0.009744345791963935
621,183,maurer,s,s,0.484264271101,1,0.35,-0.062256251704506
622,184,ahorn,s,s,0.489137811819,1,0.39,0.017951369704849413
623,185,beil,s,s,0.421297834662,1,1.69,0.04323709659036112
624,186,floete,s,s,0.49863343284199996,1,5.47,0.019755823005348342
625,187,windbeutel,s,s,0.4929392248740001,1,0.47,-0.02140678641009084
626,188,schmecken,s,s,0.355047018384,1,15.59,0.14134967164657336
627,189,lieben,s,s,0.486205390887,1,136.03,0.17315240883259295
628,190,keule,s,s,0.41418125073,1,1.77,-0.009354399434357218
629,191,leonie,l,l,0.558790612675,1,0.43,0.0023493338055622336
630,192,schwert,s,s,0.488375733024,1,63.66,0.03401214827042527
631,193,pinguin,s,s,0.571473963792,1,2.32,0.11378638720260628
632,194,bogen,s,s,0.425061614194,1,7.76,0.13694661902267127
633,195,geige,s,s,0.415217455418,1,3.31,0.07122932616738085
634,196,schlagzeug,s,s,0.479222662572,1,1.54,0.4650158365078207
635,197,klavier,s,s,0.47429395461199997,1,11.42,0.4745510181517837
636,198,psychiater,s,s,0.657366910949,1,10.51,-0.006241438259374245
637,199,floete,s,s,0.3603020260930001,1,5.47,0.013442018118848074
638,200,schlagzeug,s,s,0.461410889169,1,1.54,0.3796350597388208
639,201,gitarre,s,s,0.439944815589,1,9.29,0.5113731022034949
640,202,springen,s,s,0.402561046474,1,35.08,0.003460202186419063
641,203,rock,s,s,0.46204167825599995,1,26.18,-0.03019214953605284
642,204,ledermantel,s,s,0.44561593024999996,1,0.08,0.031571449777357666
643,205,jeans,s,l,0.39580754051,1,5.28,0.08643967665807382
644,206,spucken,s,s,0.475718468777,1,3.98,0.029266261388095943
645,207,moos,s,s,0.39901408733599997,1,1.57,-0.0017506946763791744
646,208,lilie,s,miss,999.0,1,0.71,0.05171214517081831
647,209,inga,l,l,0.603491962887,1,1.38,0.018879714029920072
648,210,loetkolben,s,s,0.5469724048160001,1,0.12,0.0007508903374849528
649,211,jacke,s,s,0.703079234343,1,27.8,0.08496906370684684
650,212,aylin,l,l,0.582530520565,1,0.0,-0.02950440179120256
651,213,hose,s,s,0.48371815745499996,1,40.4,-0.024672335474585645
652,214,socken,s,s,0.517735437199,1,14.21,0.2307737446214584
653,215,loewe,s,s,0.434916036611,1,5.51,0.004721458962468054
654,216,pullover,s,s,0.489113007905,1,5.24,0.10719234414378476
655,217,jochen,l,l,0.649373209453,1,0.2,0.020978095806755748
656,218,mohammed,l,s,0.49949130602200004,1,2.56,0.00041900309703227744
657,219,hemd,s,s,0.650272565021,1,28.43,-0.030097505849956293
658,220,diamant,s,s,0.37608415540299994,1,5.59,0.1942774457942845
659,221,krawatte,s,s,0.5169549693819999,1,10.75,0.14940396036247172
660,222,wasser,s,s,0.460511961312,1,222.53,-0.018572974175203517
661,223,schal,s,s,0.340614991554,1,4.06,0.03828430211169384
662,224,silber,s,s,0.426877859107,1,7.76,0.10214308555086964
663,225,tee,s,s,0.39660981867899997,1,59.06,0.037674648233670116
664,226,riechen,s,s,0.40807264635799995,1,20.47,0.21861447506174936
665,227,lachen,s,s,0.43719243683200004,1,83.9,0.21129949957023786
666,228,lukas,l,l,0.551473459171,1,2.64,0.0002478250044670865
667,229,kaffee,s,s,0.459975255944,1,108.51,-0.0267010041835884
668,230,stickstoff,s,s,0.47945402312299995,1,1.73,0.006593269536851257
669,231,wasser,s,s,0.36564684106299994,1,222.53,0.3717962480625511
670,232,gnu,s,s,0.635258501628,1,0.04,0.023238498131571108
671,233,sebastian,l,s,0.407428172359,1,19.13,-0.016755267506554247
672,234,erpressung,s,s,0.6194900572300001,1,6.3,-0.006544487591403055
673,235,cola,s,s,0.919171327027,1,11.89,-0.012877361794074513
674,236,sauerstoff,s,s,0.468041230924,1,9.02,0.00890682693338092
675,237,algen,s,s,0.41202117229099994,1,1.18,0.27600187393525155
676,238,trinkschokolade,s,s,0.497537784278,1,0.04,0.1249658345253099
677,239,saft,s,s,0.440675675636,1,12.36,0.3450595618867021
678,240,bier,s,s,0.42146461957599995,1,83.07,0.31136423164477633
679,241,wein,s,s,0.568855440652,1,48.39,0.462831896519707
680,242,beissen,s,s,0.546684166242,1,14.02,0.013147561807593078
681,243,whisky,s,s,0.517531446472,1,10.0,-0.0009956222342804026
682,244,scotch,s,s,0.4757278771720001,1,9.37,0.3957107852205637
683,245,zacharias,l,l,0.749341948016,1,0.12,0.03370390562188827
684,246,rum,s,s,0.547435125976,1,86.81,-0.032855729570392705
685,247,tina,l,l,0.588314963446,1,10.24,0.0774919895263985
686,248,johanna,l,l,0.402775728609,1,1.81,0.09913001464878893
687,249,cola,s,s,0.549306110595,1,11.89,-0.03854450815635218
688,250,platin,s,s,0.5940788790470001,1,1.06,0.04265295417469274
689,251,fanta,s,s,0.555111936177,1,1.85,0.06169062926603206
690,252,saft,s,s,0.38312119571500003,1,12.36,0.2513036083891475
691,253,sprite,s,s,0.5002486805899999,1,0.12,0.11332862878670608
692,254,pepsi,s,s,0.516717621591,1,1.69,0.1960171315380501
693,255,mezzo-mix,s,s,0.555054202967,1,0.0,0.0
694,256,kuchen,s,s,0.497234577837,1,37.8,0.0
695,257,raub,s,s,0.495811774221,1,5.24,0.09842376713920506
696,258,helium,s,s,0.5569452872730001,1,1.02,0.037340794703041434
697,259,broetchen,s,s,0.576415501419,1,5.75,0.0065673380166543895
698,260,elisabeth,l,l,0.4438373188600001,1,2.87,0.02454108211851053
699,261,verehren,s,s,0.517415552284,1,2.05,0.006229580816503014
700,262,sven,l,l,0.542471778055,1,2.68,-0.013005524740944928
701,263,braten,s,s,0.530119858508,1,6.02,-0.001788535376176601
702,264,kekse,s,s,0.642316069396,1,16.06,0.3558899322448617
703,265,waffeln,s,s,0.36644355976,1,3.58,0.3591744036973005
704,266,windbeutel,s,s,0.395974325365,1,0.47,0.2327010650988195
705,267,huepfen,s,s,0.5171769215959999,1,3.66,0.0662086796757749
706,268,joghurt,s,s,0.397880377597,1,2.24,0.022138021086644318
707,269,forelle,s,s,0.399253573385,1,0.63,0.06217316153927897
708,270,kaese,s,s,0.43442209670299997,1,0.28,0.11928707305815185
709,271,sebastian,l,l,0.5618179726879999,1,19.13,0.031931334714928754
710,272,antonia,l,l,0.642774514039,1,1.65,0.1227104874191795
711,273,halle,s,s,0.528622643091,1,9.41,-0.08152921921678645
712,274,quark,s,s,0.516750123294,1,0.51,-0.049295453210775865
713,275,sahne,s,s,0.6397852152,1,5.32,0.2852377231243377
714,276,jochen,l,l,0.530538103718,1,0.2,0.08451384509980513
715,277,louise,l,l,0.4332058497820001,1,7.99,0.059874454385747074
716,278,michael,l,l,0.395830206107,1,109.77,0.08499218006491709
717,279,buttermilch,s,s,0.552557133487,1,0.35,-0.037212376752753455
718,280,beil,s,s,0.49772082001400003,1,1.69,-0.010583339930134194
719,281,sehen,s,s,0.655211536679,1,1388.01,0.017530129095839318
720,282,jasmin,l,l,0.49418326927100004,1,1.34,0.00973288035805698
721,283,elisabeth,l,l,0.489810510946,1,2.87,0.1393568742704035
722,284,hans,l,l,0.425032533763,1,10.59,0.11855952744497207
723,285,hammer,s,s,0.56496336509,1,14.88,0.04911067492844546
724,286,steak,s,s,0.48037989326999997,1,9.92,0.06100116801281785
725,287,steak,s,s,0.3912312190510001,1,9.92,1.0
726,288,schnitzel,s,s,0.446150069591,1,1.46,0.2638589924992933
727,289,husten,s,s,0.389643768838,1,7.05,0.09432612662159913
728,290,joachim,l,l,0.6043305916830001,1,0.12,-0.00796126010772275
729,291,gert,l,s,0.45185796252899996,1,0.24,0.2652681876724696
730,292,trinkschokolade,s,s,0.634549451934,1,0.04,-0.053170539192450315
731,293,filet,s,s,0.553198613867,1,0.51,0.15837596140091822
732,294,gefluegel,s,s,0.516861313197,1,0.75,0.21821561918380825
733,295,filet,s,s,0.48083448904799997,1,0.51,0.21821561918380825
734,296,singen,s,s,0.583796375315,1,61.14,-0.002847319971255209
735,297,sprechen,s,s,0.662869530148,1,332.3,0.3856312739238298
736,298,fussball,s,s,0.456441554066,1,16.85,-0.005849844494894026
737,299,braten,s,l,0.5380622415690001,1,6.02,0.012793944407086321
738,300,richter,s,s,0.626666940341,1,35.2,0.15871134372468554
739,301,lukas,l,l,0.592376817542,1,2.64,-0.004221915634121764
740,302,inga,l,l,0.474501794262,1,1.38,0.03658806152594885
741,303,polizist,s,s,0.534136809001,1,48.86,-0.011536283161120351
742,304,joghurt,s,s,0.4103332234080001,1,2.24,-0.015029699602137543
743,305,sprite,s,s,0.400515579211,1,0.12,0.1338506450705001
744,306,eiche,s,s,0.37917010393,1,1.93,0.014715823637487581
745,307,gitarre,s,s,0.45347406558,1,9.29,0.0818346978631694
746,308,lehrer,s,s,0.42466646229099997,1,52.99,0.033699918477296635
747,309,whisky,s,s,0.40674649248800004,1,10.0,-0.028942136992468608
748,310,friedrich,l,s,0.432800434122,1,3.27,-0.08351753101403851
749,311,pfarrer,s,s,0.5526999697899999,1,15.0,0.0924383710351248
750,312,diktatur,s,s,0.594209741044,1,1.06,-0.017085002547347083
751,313,professor,s,s,0.540439140401,1,61.77,-0.04218522819178164
752,314,chirurg,s,s,0.441899192578,1,6.5,0.15693524076160084
753,315,psychiater,s,s,0.5510175803790001,1,10.51,0.5988270662719551
754,316,qualle,s,s,0.533916994988,1,0.71,0.007337550850266822
755,317,tee,s,s,0.37932876340300004,1,59.06,0.006940700233408989
756,318,urologe,s,s,0.39349222375299997,1,0.08,0.012090257766334843
757,319,hausarzt,s,s,0.433307631349,1,0.79,0.2475359741959299
758,320,notarzt,s,s,0.3796460824090001,1,5.04,0.3993276319157555
759,321,kriechen,s,s,0.653954662732,1,7.6,0.05981408152735646
760,322,kredit,s,s,0.386217407999,1,8.66,-0.014561894667461016
761,323,tischler,s,s,0.324772990774,1,0.47,0.05549425202189389
762,324,hausarzt,s,s,0.419080450607,1,0.79,0.09835431483038368
763,325,bert,l,s,0.445917853736,1,5.28,0.02141134488928831
764,326,schreiner,s,s,0.5825797007419999,1,0.83,0.03533962877036046
765,327,maurer,s,s,0.689105224621,1,0.35,0.5002759713359546
766,328,agathe,l,l,0.6140417500859999,1,1.38,-0.06280014914228642
767,329,schmied,s,s,0.607577765593,1,1.69,0.005029320142823472
768,330,steinmetz,s,s,0.551190352475,1,0.55,0.2725922891735341
769,331,sebastian,l,l,0.49083217547700003,1,19.13,0.0008279027995330376
770,332,svenja,l,l,0.450153762824,1,0.0,0.21188221412640287
771,333,keuchen,s,s,0.521408554225,1,2.32,0.04521281584004092
772,334,ledermantel,s,s,0.46961371332900004,1,0.08,0.007216033820070006
773,335,efeu,s,s,0.4747511163000001,1,0.35,0.0842414585265109
774,336,algen,s,s,0.622375008592,1,1.18,0.18640831582439485
775,337,einbruch,s,s,0.43630420032399997,1,10.12,0.05325895707010719
776,338,scotch,s,s,0.48497374850599995,1,9.37,-0.01373719813432599
777,339,sprinten,s,s,0.517439073301,1,0.16,-0.04900940533813477
778,340,moos,s,s,0.48176035913599996,1,1.57,-0.004656877108666014
779,341,katerina,l,l,0.5771284000370001,1,0.24,-0.05857742803675145
780,342,hoeren,s,s,0.470012714155,1,0.51,0.04575291522229449
781,343,klaus,l,l,0.5628990810360001,1,2.48,-0.03209825457939268
782,344,jochen,l,l,0.419596200867,1,0.2,0.4700452430252948
783,345,ulrike,l,l,0.455778263276,1,0.98,0.3646251864858623
784,346,bambus,s,s,0.621464534022,1,2.72,-0.03550320690095165
785,347,kuchen,s,s,0.48934009193899997,1,37.8,0.2065775599110316
786,348,kaktus,s,l,0.467133749975,1,2.4,0.1543066809596623
787,349,sven,l,l,0.944209591311,1,2.68,-0.11151049386875317
788,350,rose,s,s,0.528372893401,1,45.12,-0.12714059156729388
789,351,schulden,s,s,0.460009040602,1,34.8,-0.07293214552589612
790,352,lilie,s,l,0.639374667779,1,0.71,-0.022803271412236845
791,353,buttermilch,s,s,0.43842065805799996,1,0.35,-0.04108660154031638
792,354,felix,l,l,0.613588009612,1,6.69,0.07314295653503906
793,355,tulpe,s,s,0.630873769056,1,0.55,-0.04606444098326165
794,356,orchidee,s,s,0.598789056006,1,2.13,0.2956166724760529
795,357,veilchen,s,s,0.517028525821,1,0.87,0.2130961189912892
796,358,birke,s,s,0.596390346822,1,0.24,0.1551022745677863
797,359,moegen,s,s,0.457924656861,1,0.12,-0.0081034078696672
798,360,eiche,s,s,0.536276360042,1,1.93,0.0446586790154135
799,361,notarzt,s,s,0.7383632241979999,1,5.04,-0.05594200409799728
800,362,pepsi,s,s,0.47981496283299996,1,1.69,-0.023933721752941298
801,363,leopard,s,s,0.361957900866,1,1.89,0.03362799749300434
802,364,trauerweide,s,s,0.45685081859099996,1,0.08,0.03402285951532764
803,365,ingmar,l,s,0.430308496463,1,0.16,0.026377906714927297
804,366,fichte,s,s,0.516911776329,1,0.08,0.05772864148149056
805,367,bogen,s,s,0.41196044546099997,1,7.76,-0.054172346545552655
806,368,rennen,s,s,0.419092424971,1,54.41,0.03378139276607815
807,369,ahorn,s,s,0.642223696224,1,0.39,-0.07049437186813899
808,370,qualle,s,s,0.447663963481,1,0.71,0.005712613382162288
809,371,lama,s,s,0.677289582673,1,4.09,0.02822515406938448
810,372,jaqueline,l,l,0.583609063062,1,0.35,-0.09596850031931048
811,373,chirurg,s,s,0.5176097070800001,1,6.5,-0.007513422711480506
812,374,beton,s,s,0.605797443539,1,3.07,-0.012932871641817395
813,375,broetchen,s,s,0.614585725532,1,5.75,0.020806830387233168
814,376,wandern,s,s,0.400145658816,1,7.09,0.022258280907757683
815,377,kaffee,s,s,0.525229639316,1,108.51,0.0396196925719247
816,378,fledermaus,s,s,0.45697868702699995,1,3.39,-0.03110517130732628
817,379,bambus,s,s,0.443675238115,1,2.72,0.02205757455912262
818,380,chlor,s,s,0.393164213456,1,0.63,0.0013780887824774038
819,381,gefluegel,s,s,0.5167522615519999,1,0.75,0.05222008436532954
820,382,kekse,s,s,0.395328568411,1,16.06,0.1458903581930774
821,383,helmut,l,s,0.36092982161799997,1,1.46,0.048079475613482164
822,384,affe,s,s,0.747065547737,1,16.77,0.033334095267131464
823,385,rugby,s,s,0.7633322085600001,1,0.63,-0.04577196211005096
824,386,gnu,s,s,0.429330452636,1,0.04,-0.015375827533284987
825,387,jonas,l,l,0.465253784612,1,5.95,0.016554736171081934
826,388,angreifen,s,s,0.517626813205,1,26.14,-0.03557235819480506
827,389,hose,s,s,0.491989833827,1,40.4,0.005282993177588857
828,390,tennis,s,s,0.5169660883839999,1,4.96,0.02937033923610949
829,391,amsel,s,s,0.4966987278890001,1,0.63,0.06868703805676722
830,392,quarz,s,s,0.463458494691,1,0.98,0.07644063624894884
831,393,pinguin,s,s,0.577257979021,1,2.32,-0.025148404287329482
832,394,leonie,l,l,0.622992540477,1,0.43,0.022223245951755267
833,395,kaese,s,s,0.519400292775,1,0.28,-0.0391262713423885
834,396,harald,l,l,0.65655693505,1,2.87,0.014442977318544124
835,397,spatz,s,s,0.405760323221,1,2.44,-0.04248266577189616
836,398,adler,s,s,0.524999989313,1,6.58,0.25041863849785256
837,399,storch,s,s,0.547925217077,1,0.75,0.14706629717983352
838,400,methan,s,s,0.655689225823,1,0.87,-0.05779865097811907
839,401,krawatte,s,s,0.63950638508,1,10.75,-0.030493313792913687
840,402,hai,s,s,0.519186466001,1,8.15,0.06004484838783825
841,403,kommunismus,s,s,0.517551118508,1,2.01,-0.0583606430361194
842,404,karpfen,s,s,0.6041526877669999,1,1.73,0.02013065828545369
843,405,wein,s,s,0.411871493503,1,48.39,0.08991515926935502
844,406,goldfisch,s,s,0.430012132507,1,1.97,0.05672458510276902
845,407,lachs,s,s,0.567127720045,1,3.5,0.2428449157441889
846,408,inga,l,l,0.5971973292180001,1,1.38,-0.04490606078505181
847,409,granit,s,s,0.558545139502,1,0.71,-0.008896965164588499
848,410,forelle,s,s,0.479752953048,1,0.63,0.05098882820069226
849,411,haus,s,s,0.48923146794600003,1,406.43,-0.035955693443201465
850,412,kapitalismus,s,s,0.45417798345399996,1,1.85,0.05770546006141637
851,413,fanta,s,s,0.448218630219,1,1.85,-0.03792960023777352
852,414,puma,s,s,0.424290982366,1,1.18,0.03274287732132914
853,415,loewe,s,s,0.4259365935,1,5.51,0.1027520624981258
854,416,leopard,s,s,0.641320064082,1,1.89,0.2799960420640629
855,417,tiger,s,s,0.399549509631,1,17.24,0.4434792462631304
856,418,simone,l,s,0.469466172857,1,6.54,-0.037834294829879586
857,419,agathe,l,l,0.587725656806,1,1.38,0.16744005210871812
858,420,panther,s,s,0.5177161928149999,1,1.85,0.03301443935909058
859,0,jagen,s,s,0.7925481796259999,2,38.03,0.0
860,1,verfolgen,s,s,0.485023975372,2,41.89,0.3753340452443849
861,2,angreifen,s,s,0.535978794098,2,26.14,0.4779836250476209
862,3,jeans,s,s,0.6586880683899999,2,5.28,-0.0037078850511466795
863,4,verschlingen,s,s,0.432948827744,2,2.64,-0.0021757060151300057
864,5,verehren,s,s,0.463516950607,2,2.05,0.3106319523054841
865,6,bambus,s,s,0.398227930069,2,2.72,-0.03146619474121369
866,7,cola,s,s,0.46110486984300003,2,11.89,0.016355346179531424
867,8,beissen,s,s,0.39586114883400003,2,14.02,0.07452118976294678
868,9,mord,s,s,0.33062005043000003,2,65.91,0.07695249770546514
869,10,pepsi,s,s,0.353368997574,2,1.69,0.043089553034661165
870,11,waffeln,s,s,0.38393497467,2,3.58,0.1290900581229108
871,12,raub,s,s,0.399745941162,2,5.24,-0.04003034028641436
872,13,brandstiftung,s,s,0.426098108292,2,2.52,0.342473970235469
873,14,einbruch,s,s,0.366427898407,2,10.12,0.22602050771614185
874,15,kommunismus,s,s,0.363083124161,2,2.01,0.07534580226998137
875,16,erpressung,s,s,0.401817798615,2,6.3,-2.2006996478211773e-05
876,17,hendrik,l,s,0.36839985847499995,2,0.2,0.07731000533898305
877,18,kotzen,s,s,0.820171833038,2,12.01,-0.02395342393938901
878,19,ingmar,l,s,0.435010910034,2,0.16,-0.02562576496199819
879,20,aktien,s,s,0.633731842041,2,8.03,-0.035468314775454465
880,21,diktatur,s,s,0.578588962555,2,1.06,-0.02447981098289909
881,22,stickstoff,s,s,0.44949889182999997,2,1.73,0.024255271989150343
882,23,wuergen,s,s,0.440313100815,2,2.28,0.02258681484319824
883,24,husten,s,s,0.44682598113999994,2,7.05,0.22159574319578354
884,25,gehen,s,s,0.389745950699,2,1440.25,0.05841161975798255
885,26,dietmar,l,l,0.500399827957,2,0.12,0.023221026794020785
886,27,jakob,l,l,0.547180891037,2,6.65,0.13373544417761718
887,28,hochachten,s,s,0.721938848495,2,0.0,0.0
888,29,fragen,s,s,0.536089897156,2,350.05,0.0
889,30,keuchen,s,s,0.43945479393,2,2.32,-0.04820325808986146
890,31,spucken,s,s,0.53591799736,2,3.98,0.1172285346901179
891,32,saft,s,s,0.349148035049,2,12.36,0.16045357204372135
892,33,helium,s,s,0.355851888657,2,1.02,0.119813872620685
893,34,riechen,s,s,0.40250897407499997,2,20.47,0.02521300039826634
894,35,harald,l,l,0.536293983459,2,2.87,0.02676395990948608
895,36,platin,s,s,0.471966981888,2,1.06,0.002741789490997761
896,37,ricarda,l,l,0.6307528018949999,2,0.08,0.04499310192989914
897,38,michael,l,l,0.5362040996549999,2,109.77,0.07792026895973668
898,39,raub,s,s,0.45238208770800004,2,5.24,0.01659716299287102
899,40,lachen,s,s,0.41109681129500003,2,83.9,0.08140224484487799
900,41,sprechen,s,s,0.620366096497,2,332.3,0.29024546857758554
901,42,halle,s,s,0.8030800819399999,2,9.41,-0.017637097970951726
902,43,joggen,s,s,0.5535149574279999,2,2.99,0.07520919305467423
903,44,schal,s,s,0.42630815505999997,2,4.06,0.02537223933450257
904,45,singen,s,s,0.43367314338699997,2,61.14,0.06303948853931443
905,46,katerina,l,l,0.43136906623800003,2,0.24,0.0578492312515269
906,47,bier,s,s,0.445807933807,2,83.07,0.0072476434334724565
907,48,rose,s,s,0.46837210655199996,2,45.12,0.03275043477087655
908,49,sagen,s,s,0.40357303619400003,2,1458.48,-0.03274783694021748
909,50,jonas,l,l,0.5360188484189999,2,5.95,-0.04973891230567682
910,51,johanna,l,l,0.544521093369,2,1.81,0.07004485330440227
911,52,lama,s,s,0.536172866821,2,4.09,-0.0653785068431409
912,53,dietmar,l,l,0.438515901566,2,0.12,0.0010905490677682412
913,54,fragen,s,s,0.428903102875,2,350.05,0.003720778328332279
914,55,moegen,s,s,0.411571025848,2,0.12,0.06418023455994752
915,56,moritz,l,l,0.458591938019,2,1.06,0.03478873089737865
916,57,schlagzeug,s,s,0.449171066284,2,1.54,-0.038326472891370485
917,58,lieben,s,s,0.41823792457599995,2,136.03,0.06446919411885889
918,59,begehren,s,s,0.496575117111,2,2.01,0.2383947213834233
919,60,tiger,s,s,0.430135011673,2,17.24,-0.0558503696807868
920,61,zange,s,s,0.536133050919,2,2.36,0.04345767080719432
921,62,verehren,s,s,0.485196828842,2,2.05,-0.04016907753493161
922,63,lachen,s,s,0.4838900566100001,2,83.9,0.13240732002877953
923,64,hai,s,s,0.626728057861,2,8.15,0.027898870468201845
924,65,max,l,s,0.385219097137,2,40.47,0.014506547704765272
925,66,hochachten,s,s,0.621621131897,2,0.0,0.0
926,67,christian,l,l,0.555876970291,2,10.63,0.0
927,68,notarzt,s,s,0.44269990921,2,5.04,-0.027976224907112424
928,69,demokratie,s,s,0.61739897728,2,8.07,-0.06798294725954444
929,70,harald,l,l,0.656302928925,2,2.87,0.056857694456240025
930,71,efeu,s,s,0.441269874573,2,0.35,0.04004000260526702
931,72,fanta,s,s,0.662055969238,2,1.85,0.05314372316410576
932,73,jaqueline,l,l,0.62827706337,2,0.35,0.026084662444160887
933,74,felix,l,l,0.491120100021,2,6.69,0.08060098303593932
934,75,thomas,l,l,0.441777944565,2,24.65,0.2436534923337438
935,76,katerina,l,l,0.480846881866,2,0.24,0.06702485526264584
936,77,klavier,s,s,0.536160945892,2,11.42,0.08177587539417605
937,78,diktatur,s,s,0.5364818573,2,1.06,-0.022860087947828032
938,79,jochen,l,s,0.5747799873349999,2,0.2,0.049424352920612535
939,80,kapitalismus,s,s,0.638495922089,2,1.85,0.04024650700847335
940,81,monarchie,s,s,0.7284300327300001,2,0.75,0.155433690274893
941,82,pinguin,s,s,0.430739164352,2,2.32,0.005263648556421924
942,83,kommunismus,s,s,0.421547174454,2,2.01,-0.006069379314628335
943,84,sauerstoff,s,s,0.428149938583,2,9.02,-0.004818118756495117
944,85,fussball,s,s,0.47518992423999995,2,16.85,-0.0040512072980799264
945,86,hans,l,l,0.649666070938,2,10.59,-0.029304390889319243
946,87,husten,s,s,0.456491947174,2,7.05,-0.04165512919228125
947,88,diamant,s,s,0.6231110095979999,2,5.59,-0.0184164274016399
948,89,gnu,s,s,0.41446185111999995,2,0.04,-0.030622612385264036
949,90,basketball,s,s,0.492896795273,2,7.05,0.019021020431334697
950,91,kapitalismus,s,s,0.536390066147,2,1.85,-0.03650826796222252
951,92,gold,s,s,0.602097988129,2,53.47,0.05018110398162637
952,93,boerse,s,s,0.369084119797,2,4.29,-0.017969383466624418
953,94,kredit,s,s,0.391989946365,2,8.66,0.18596480796542275
954,95,schulden,s,s,0.418528079987,2,34.8,0.4538649888947719
955,96,zinsen,s,s,0.40685915946999995,2,4.88,0.5820970277672503
956,97,aktien,s,s,0.388277053833,2,8.03,0.4246600648779574
957,98,golf,s,s,0.38669490814199997,2,15.51,0.013651535872971384
958,99,basketball,s,s,0.409723043442,2,7.05,0.08756051477944514
959,100,fussball,s,s,0.40027594566299995,2,16.85,0.4673407597499465
960,101,tennis,s,s,0.6187429428100001,2,4.96,0.32100084958424563
961,102,hendrik,l,s,0.353549957275,2,0.2,0.04152068651961998
962,103,rugby,s,s,0.310218095779,2,0.63,-0.002762122307111736
963,104,sprinten,s,s,0.41344690322899996,2,0.16,-0.029108076638806175
964,105,joggen,s,s,0.41266202926600004,2,2.99,0.26652908683840226
965,106,laufen,s,s,0.37972998619099996,2,136.66,0.2380700950490028
966,107,kriechen,s,s,0.378051042557,2,7.6,0.4261590408515232
967,108,felix,l,l,0.47273492813100004,2,6.69,-0.029849163615477674
968,109,huepfen,s,s,0.4313778877260001,2,3.66,-0.042904804706188925
969,110,sagen,s,s,0.382180929184,2,1458.48,0.13395580826182754
970,111,springen,s,s,0.3738338947300001,2,35.08,0.11543367319718338
971,112,keule,s,s,0.395761013031,2,1.77,-0.005079933223417374
972,113,kaktus,s,s,0.386611938477,2,2.4,0.03532010228316612
973,114,affe,s,s,0.441334962845,2,16.77,0.17208625840281105
974,115,axel,l,s,0.3770430088040001,2,4.49,-0.009393343961242938
975,116,rennen,s,s,0.33360195159899997,2,54.41,-0.026286276574401857
976,117,springen,s,s,0.524494886398,2,35.08,0.41439389081276745
977,118,harald,l,l,0.523795843124,2,2.87,0.022959115191984115
978,119,schmecken,s,s,0.379472970963,2,15.59,-0.007585776147595394
979,120,jasmin,l,l,0.434741020203,2,1.34,0.1036238921711593
980,121,schleichen,s,s,0.490326881409,2,5.55,-0.004852196737308176
981,122,louise,l,l,0.625129938126,2,7.99,-0.07018960160477276
982,123,rennen,s,s,0.41595101356499997,2,54.41,-0.010773563116491887
983,124,feile,s,l,0.494765996933,2,0.43,-0.027614985346467842
984,125,marmor,s,s,0.711962938309,2,1.18,0.014161185027580743
985,126,kriechen,s,s,0.49438691139200003,2,7.6,0.009344607887418784
986,127,huepfen,s,s,0.667752027512,2,3.66,0.4452478628989081
987,128,gehen,s,s,0.519536018372,2,1440.25,0.3292649466787088
988,129,wandern,s,s,0.38664913177500004,2,7.09,0.39650081765759226
989,130,hoeren,s,s,0.5701179504389999,2,0.51,0.1843588058503603
990,131,sehen,s,s,0.521587848663,2,1388.01,0.7898357483789887
991,132,fuehlen,s,s,0.361040830612,2,0.2,0.20902987663525
992,133,schmecken,s,s,0.392484903336,2,15.59,0.12510770832888538
993,134,riechen,s,s,0.591939926147,2,20.47,0.5541222246864459
994,135,hausarzt,s,s,0.391145944595,2,0.79,0.02034060076845947
995,136,methan,s,s,0.390598058701,2,0.87,-0.03730511477677706
996,137,wandern,s,s,0.421217918396,2,7.09,0.059070901647566634
997,138,ricarda,l,l,0.580082893372,2,0.08,-0.0033370588048688
998,139,sauerstoff,s,s,0.371706008911,2,9.02,0.010199591072201955
999,140,axt,s,s,0.563373088837,2,6.93,-0.04073838102590285
1000,141,gitarre,s,miss,999.0,2,9.29,0.1386938955352016
1001,142,forelle,s,miss,999.0,2,0.63,-0.02004861945878578
1002,143,helium,s,s,0.412061929703,2,1.02,-0.06786846294207607
1003,144,stickstoff,s,s,0.402203083038,2,1.73,0.5504580588538499
1004,145,chirurg,s,s,0.30321097374,2,6.5,-0.02370681011722751
1005,146,samson,l,s,0.359592914581,2,1.5,0.05841192138752682
1006,147,chlor,s,s,0.497048139572,2,0.63,0.016250640642449694
1007,148,platin,s,s,0.41446995735200004,2,1.06,0.182604099197915
1008,149,hoeren,s,s,0.389206171036,2,0.51,0.07213639411662245
1009,150,jonas,l,s,0.428123950958,2,5.95,-0.0458923854279453
1010,151,jaqueline,l,l,0.584804058075,2,0.35,0.10074173430599448
1011,152,gerhard,l,l,0.6957750320430001,2,2.68,0.08723994165429841
1012,153,kupfer,s,l,0.470505952835,2,0.91,-0.02204394736873981
1013,154,eisen,s,s,0.469101190567,2,8.9,0.7265271469270432
1014,155,silber,s,s,0.387830018997,2,7.76,0.3137884985416305
1015,156,gerhard,l,s,0.346596002579,2,2.68,0.008713524821776123
1016,157,gold,s,l,0.691204786301,2,53.47,-0.02687037498275427
1017,158,diamant,s,s,0.705941915512,2,5.59,0.2400508832816367
1018,159,quarz,s,miss,999.0,2,0.98,0.2981799946389121
1019,160,granit,s,s,0.5389990806580001,2,0.71,0.4832827775592974
1020,161,marmor,s,s,0.536111116409,2,1.18,0.7144170165886969
1021,162,beton,s,s,0.332524061203,2,3.07,0.4567885692766092
1022,163,storch,s,s,0.387568950653,2,0.75,-0.038766710322954964
1023,164,lachs,s,s,0.49820590019199995,2,3.5,0.1220974537430508
1024,165,burg,s,s,0.336740970612,2,9.92,-0.015537177336152553
1025,166,polizist,s,s,0.351600885391,2,48.86,0.012391284761690777
1026,167,haus,s,s,0.34214496612499995,2,406.43,0.11227466363128286
1027,168,svenja,l,l,0.428989887238,2,0.0,-0.011435904391151552
1028,169,huette,s,s,0.387887001038,2,17.99,-0.018508050735686298
1029,170,loewe,s,s,0.5360829830170001,2,5.51,0.10077896889752316
1030,171,halle,s,s,0.35359287261999994,2,9.41,-0.023063544457331803
1031,172,garage,s,s,0.495695829391,2,14.84,0.14649927432625426
1032,173,hammer,s,s,0.537312984467,2,14.88,0.04121133725615556
1033,174,zange,s,s,0.367513895035,2,2.36,0.15996210119356066
1034,175,helmut,l,s,0.36600208282499996,2,1.46,-0.022795074118933698
1035,176,psychiater,s,s,0.42656993866,2,10.51,0.054433596776792006
1036,177,rum,s,s,0.417135000229,2,86.81,-0.0828310281107002
1037,178,loetkolben,s,s,0.367985010147,2,0.12,0.10578558426710157
1038,179,axel,l,l,0.4787681102750001,2,4.49,0.05827585521147954
1039,180,feile,s,s,0.302863836288,2,0.43,-0.07318682661320451
1040,181,beil,s,s,0.7309989929199999,2,1.69,0.27128443432045624
1041,182,einbruch,s,s,0.345665931702,2,10.12,0.1103847594287844
1042,183,goldfisch,s,s,0.352346897125,2,1.97,0.17943926108823074
1043,184,saege,s,s,0.302124023438,2,3.11,0.11829099997252945
1044,185,aylin,l,s,0.326058149338,2,0.0,0.02127307744880012
1045,186,helmut,l,s,0.57640504837,2,1.46,0.07822024857523092
1046,187,axt,s,s,0.6231238842010001,2,6.93,-0.03766016838325127
1047,188,sprechen,s,miss,999.0,2,332.3,-0.018831859911488055
1048,189,benjamin,l,l,0.536418914795,2,7.36,0.03738978149962415
1049,190,beil,s,s,0.785925149918,2,1.69,0.02231231858320808
1050,191,kuchen,s,s,0.536045074463,2,37.8,0.11803381534656107
1051,192,hemd,s,s,0.37541604042099996,2,28.43,0.11746544450664433
1052,193,max,l,l,0.414140939713,2,40.47,-0.018759995507224028
1053,194,joachim,l,s,0.39733099937399996,2,0.12,0.15003225904590448
1054,195,bert,l,l,0.688997983932,2,5.28,0.07138397851057167
1055,196,singen,s,s,0.4476330280300001,2,61.14,-0.0315959957880911
1056,197,keule,s,s,0.614161968231,2,1.77,0.00314137325997157
1057,198,moritz,l,l,0.580909013748,2,1.06,-0.016880534283964792
1058,199,moos,s,s,0.5555949211119999,2,1.57,0.045892666052314346
1059,200,schwert,s,s,0.538972139359,2,63.66,0.05962244339365005
1060,201,sprinten,s,s,0.540135860443,2,0.16,0.0897869934496281
1061,202,adler,s,s,0.5360791683199999,2,6.58,-0.014623770986098896
1062,203,bogen,s,s,0.443895101547,2,7.76,0.1635720318336153
1063,204,angreifen,s,s,0.400340795517,2,26.14,0.11152426697195117
1064,205,filet,s,s,0.383193016052,2,0.51,-0.03236262983482033
1065,206,silber,s,s,0.35829782486,2,7.76,0.09377871626730254
1066,207,bettina,l,s,0.356607913971,2,0.16,-0.040353932821394496
1067,208,geige,s,s,0.562367916107,2,3.31,-0.0022566218775524373
1068,209,klavier,s,s,0.576971054077,2,11.42,0.4752730036814629
1069,210,floete,s,s,0.407781839371,2,5.47,0.7575010157669474
1070,211,wasser,s,s,0.438472986221,2,222.53,-0.013553911120132505
1071,212,schnitzel,s,s,0.405194997787,2,1.46,0.11763135708182462
1072,213,schlagzeug,s,s,0.435832023621,2,1.54,0.06200287692402059
1073,214,bettina,l,l,0.714827060699,2,0.16,-0.04074104050541147
1074,215,gitarre,s,s,0.473828792572,2,9.29,-0.0131349019601173
1075,216,harald,l,l,0.5682060718540001,2,2.87,0.028113780022091882
1076,217,schwert,s,s,0.42302608490000004,2,63.66,-0.002936156948254861
1077,218,ledermantel,s,s,0.47782182693499997,2,0.08,0.2610016601086188
1078,219,jochen,l,l,0.580530881882,2,0.2,0.023320755902393117
1079,220,saege,s,s,0.49124503135700004,2,3.11,-0.06680018155799251
1080,221,geige,s,s,0.7626109123229999,2,3.31,0.19862250425509093
1081,222,rock,s,s,0.352417945862,2,26.18,0.044593967569218816
1082,223,ledermantel,s,s,0.3988959789280001,2,0.08,0.031571449777357666
1083,224,steinmetz,s,s,0.341762065887,2,0.55,0.04849825275490579
1084,225,jeans,s,s,0.42859792709399996,2,5.28,-0.011900976810118528
1085,226,jagen,s,s,0.387182950974,2,38.03,0.06745088812120499
1086,227,axel,l,l,0.49028301238999994,2,4.49,0.05372388383617159
1087,228,schulden,s,s,0.302552938461,2,34.8,-0.015090910523108216
1088,229,jakob,l,s,0.36768913269000003,2,6.65,0.0008571732043390817
1089,230,gert,l,s,0.536257982254,2,0.24,0.06936269461861824
1090,231,jacke,s,s,0.687030076981,2,27.8,0.016447787482263304
1091,232,hose,s,s,0.46167588233900003,2,40.4,0.6465228980336024
1092,233,sebastian,l,l,0.5361948013310001,2,19.13,-0.015947411872034068
1093,234,veilchen,s,s,0.35506319999700003,2,0.87,-0.008955014074524047
1094,235,begehren,s,s,0.369956016541,2,2.01,0.09826481904934453
1095,236,socken,s,s,0.35252594947800003,2,14.21,-0.004003865933700158
1096,237,scotch,s,s,0.335359811783,2,9.37,0.025481817078044342
1097,238,hose,s,s,0.41403484344499997,2,40.4,0.06575352130058351
1098,239,pullover,s,s,0.38881897926299996,2,5.24,0.4891718810063557
1099,240,tee,s,s,0.419569015503,2,59.06,0.16836568962641085
1100,241,brandstiftung,s,s,0.5361530780789999,2,2.52,-0.021540382762241028
1101,242,garage,s,s,0.409579992294,2,14.84,0.21010450177772927
1102,243,hemd,s,s,0.42280507087700003,2,28.43,-0.002999201192921489
1103,244,krawatte,s,s,0.356023073196,2,10.75,0.5066021094812195
1104,245,schal,s,s,0.35157895088200003,2,4.06,0.3659018269981688
1105,246,tee,s,s,0.347993850708,2,59.06,0.24415259634860115
1106,247,kaffee,s,s,0.330807924271,2,108.51,0.5878897147515861
1107,248,wuergen,s,s,0.301987886429,2,2.28,0.012179345805727746
1108,249,wasser,s,s,0.302816867828,2,222.53,0.0788899791734226
1109,250,trinkschokolade,s,s,0.42300701141400004,2,0.04,0.1806000305084985
1110,251,saft,s,s,0.381684064865,2,12.36,0.3450595618867021
1111,252,erpressung,s,s,0.468351125717,2,6.3,-0.009742618022410141
1112,253,ingrid,l,s,0.371232032776,2,2.09,0.07268198797223924
1113,254,bier,s,s,0.419610023499,2,83.07,-0.07486394423998291
1114,255,wein,s,s,0.386140108109,2,48.39,0.462831896519707
1115,256,zinsen,s,s,0.38505005836499995,2,4.88,0.045931623442195695
1116,257,boerse,s,s,0.36782884597800003,2,4.29,0.12297961575302314
1117,258,richter,s,s,0.358528852463,2,35.2,-0.00511919830682064
1118,259,thomas,l,s,0.341184854507,2,24.65,-0.006695173903154682
1119,260,louise,l,s,0.303059101105,2,7.99,0.050847140320326036
1120,261,whisky,s,s,0.7283751964569999,2,10.0,-0.030380508693862343
1121,262,katrin,l,l,0.575143814087,2,7.99,0.015074524766416209
1122,263,katrin,l,l,0.46193504333499996,2,7.99,1.0
1123,264,aylin,l,l,0.540703058243,2,0.0,0.1250467168520671
1124,265,mechtild,l,l,0.587461948395,2,0.0,0.07335021692170024
1125,266,tim,l,l,0.45803284645099995,2,23.9,0.0859796847871806
1126,267,jonas,l,l,0.432855844498,2,5.95,0.14803564203742847
1127,268,rugby,s,s,0.567489147186,2,0.63,0.006926122710204263
1128,269,broetchen,s,s,0.487104177475,2,5.75,-0.07049814200159628
1129,270,jochen,l,l,0.461129903793,2,0.2,0.047143451682141464
1130,271,scotch,s,s,0.436140060425,2,9.37,0.01966882538993036
1131,272,mezzo-mix,s,s,0.45060801506000003,2,0.0,0.0
1132,273,rum,s,s,0.47333097457900003,2,86.81,0.0
1133,274,kaese,s,s,0.42434000968900004,2,0.28,0.256102104761942
1134,275,cola,s,s,0.391117095947,2,11.89,0.21809379444597798
1135,276,fanta,s,s,0.45504593849200003,2,1.85,0.21653504337331345
1136,277,axel,l,l,0.550426006317,2,4.49,-0.039767429519261266
1137,278,sprite,s,s,0.411556959152,2,0.12,-0.01968641307631676
1138,279,pepsi,s,s,0.41795897483800004,2,1.69,0.1960171315380501
1139,280,mezzo-mix,s,s,0.416597127914,2,0.0,0.0
1140,281,svenja,l,l,0.644774913788,2,0.0,0.0
1141,282,leopard,s,s,0.451522111893,2,1.89,-0.034102482264419524
1142,283,tischler,s,s,0.498172044754,2,0.47,-0.047160543849661056
1143,284,kuchen,s,s,0.376857042313,2,37.8,0.09944229781048076
1144,285,broetchen,s,s,0.392086029053,2,5.75,0.6021820752409526
1145,286,kekse,s,s,0.40671396255500003,2,16.06,0.4302947776948564
1146,287,moegen,s,s,0.35709118843099996,2,0.12,0.06840276022272627
1147,288,pfarrer,s,s,0.4280149936680001,2,15.0,-0.07451979445996335
1148,289,waffeln,s,s,0.35476112365699997,2,3.58,-0.02265400861626636
1149,290,windbeutel,s,s,0.401462078094,2,0.47,0.2327010650988195
1150,291,joghurt,s,s,0.37632393837,2,2.24,0.24001278425255845
1151,292,kaese,s,s,0.367136001587,2,0.28,0.6174008760037452
1152,293,quark,s,s,0.44614005088799996,2,0.51,0.3956963985058619
1153,294,sahne,s,s,0.38881802558899997,2,5.32,0.2852377231243377
1154,295,beton,s,s,0.37908601760899996,2,3.07,0.11621730871979727
1155,296,trinkschokolade,s,s,0.465949058533,2,0.04,0.02349671909436234
1156,297,lilie,s,s,0.49693608283999996,2,0.71,0.05537303191321813
1157,298,verfolgen,s,s,0.423346042633,2,41.89,-0.05528924735704674
1158,299,dietmar,l,l,0.535957098007,2,0.12,-0.018666860009675827
1159,300,johannes,l,l,0.5570499897,2,3.03,0.21304581532534408
1160,301,buttermilch,s,s,0.480436086655,2,0.35,-0.008803617239842342
1161,302,buttermilch,s,s,0.46288895607,2,0.35,1.0
1162,303,steak,s,s,0.41363382339500004,2,9.92,0.12206467927223845
1163,304,schnitzel,s,s,0.428721189499,2,1.46,0.2638589924992933
1164,305,sahne,s,s,0.402919054031,2,5.32,0.38788149920080817
1165,306,max,l,l,0.561753988266,2,40.47,0.0684388167554478
1166,307,laufen,s,s,0.40848612785300004,2,136.66,0.0065492470233166795
1167,308,bogen,s,s,0.399538993835,2,7.76,0.12402919488216715
1168,309,matthias,l,l,0.502254962921,2,0.67,-0.084758139649705
1169,310,lukas,l,l,0.536005020142,2,2.64,0.2989135264608609
1170,311,windbeutel,s,s,0.43546581268299994,2,0.47,-0.00158090908569727
1171,312,gefluegel,s,s,0.386562108994,2,0.75,0.07271019412382099
1172,313,ricarda,l,l,0.467566013336,2,0.08,0.02554447474382892
1173,314,filet,s,s,0.394170045853,2,0.51,0.009468635920629926
1174,315,verschlingen,s,s,0.3905999660490001,2,2.64,0.05681620028901217
1175,316,felix,l,l,0.413556814194,2,6.69,-0.02256588830152069
1176,317,orchidee,s,s,0.340110063553,2,2.13,-0.025060073835585717
1177,318,kredit,s,s,0.4668459892270001,2,8.66,-0.03127820294444654
1178,319,joachim,l,l,0.46568894386299997,2,0.12,-0.02549983337567465
1179,320,simone,l,l,0.552309989929,2,6.54,0.12870964406368987
1180,321,braten,s,s,0.536624193192,2,6.02,-0.045673503433999216
1181,322,richter,s,s,0.41712594032300004,2,35.2,0.15871134372468554
1182,323,polizist,s,s,0.37615895271300004,2,48.86,0.2276136198241845
1183,324,nelly,l,l,0.48686289787299997,2,0.98,0.028434310286744494
1184,325,fuehlen,s,s,0.3815741539,2,0.2,0.048650222583915465
1185,326,socken,s,s,0.3722012043,2,14.21,0.05829317641550616
1186,327,lehrer,s,s,0.535992145538,2,52.99,-0.025079075364599364
1187,328,pfarrer,s,s,0.417595863342,2,15.0,0.41304400948753134
1188,329,rock,s,s,0.4324469566350001,2,26.18,-0.0423779451250517
1189,330,lea,l,l,0.5591001510620001,2,0.94,-0.04432939873707445
1190,331,demokratie,s,s,0.42198801040600004,2,8.07,-0.05614700480843424
1191,332,professor,s,s,0.557093858719,2,61.77,-0.010481186767356805
1192,333,louise,l,s,0.3715047836300001,2,7.99,-0.005460651320605265
1193,334,bert,l,s,0.48631811142,2,5.28,-0.003576757146283224
1194,335,lieben,s,s,0.50085401535,2,136.03,-0.013844905026169436
1195,336,chirurg,s,s,0.411641836166,2,6.5,-0.01925904428164834
1196,337,psychiater,s,s,0.458477973938,2,10.51,0.5988270662719551
1197,338,amsel,s,s,0.457275152206,2,0.63,0.03687809571739442
1198,339,huette,s,s,0.399933099747,2,17.99,0.11146945724344473
1199,340,krawatte,s,s,0.382675170898,2,10.75,0.07122162007127678
1200,341,urologe,s,s,0.5716431140899999,2,0.08,0.0246277917425279
1201,342,hausarzt,s,s,0.386256933212,2,0.79,0.2475359741959299
1202,343,hammer,s,s,0.40904998779299995,2,14.88,0.1218444753171686
1203,344,notarzt,s,s,0.33573985099799997,2,5.04,0.11484895392166608
1204,345,tischler,s,s,0.3825049400330001,2,0.47,0.11647842654924492
1205,346,schreiner,s,s,0.361501216888,2,0.83,0.5507120123364537
1206,347,beissen,s,s,0.381760120392,2,14.02,-0.09049614093233146
1207,348,maurer,s,s,0.3884360790250001,2,0.35,-0.0334750957999236
1208,349,ahorn,s,s,0.384843826294,2,0.39,0.017951369704849413
1209,350,schmied,s,s,0.33554720878600003,2,1.69,-0.011356736824248105
1210,351,sehen,s,s,0.334115028381,2,1388.01,-0.08521184812727725
1211,352,steinmetz,s,s,0.43729209899899996,2,0.55,-0.03449762083715124
1212,353,efeu,s,s,0.659879922867,2,0.35,-0.03029439393733724
1213,354,haus,s,s,0.394603967667,2,406.43,0.044739778105690575
1214,355,algen,s,s,0.425166130066,2,1.18,-0.055379559505886966
1215,356,moos,s,s,0.40011119842500004,2,1.57,0.19074158659831789
1216,357,harald,l,l,0.550867080688,2,2.87,0.03307360744830388
1217,358,bambus,s,s,0.421610116959,2,2.72,-0.01303949623332482
1218,359,schmied,s,s,0.396275043488,2,1.69,0.023750194698907497
1219,360,joghurt,s,s,0.371188163757,2,2.24,0.004951546695962799
1220,361,kaktus,s,s,0.40958905219999997,2,2.4,0.05017537935140711
1221,362,samson,l,s,0.36882901191699996,2,1.5,-0.0016216037264536315
1222,363,rose,s,s,0.420281887054,2,45.12,0.049469012123215285
1223,364,lilie,s,s,0.394796133041,2,0.71,0.4256638401125802
1224,365,eisen,s,s,0.385429143906,2,8.9,0.09844535105370722
1225,366,jasmin,l,s,0.368389844894,2,1.34,-0.026694056123788917
1226,367,gefluegel,s,s,0.536483049393,2,0.75,0.10029300988311916
1227,368,tennis,s,s,0.42612791061399996,2,4.96,0.17568048839280273
1228,369,tulpe,s,s,0.37714600563,2,0.55,0.08504387872497904
1229,370,chlor,s,s,0.415853977203,2,0.63,-0.04194379570752674
1230,371,tim,l,l,0.462553024292,2,23.9,-0.005800243755030061
1231,372,mord,s,s,0.46924901008599995,2,65.91,0.11473887414249825
1232,373,inga,l,l,0.452178955078,2,1.38,0.06451261260089347
1233,374,puma,s,s,0.450726032257,2,1.18,0.003337021999194473
1234,375,orchidee,s,s,0.369771003723,2,2.13,0.06806148581369881
1235,376,professor,s,s,0.40035414695699995,2,61.77,-0.008576656118108936
1236,377,algen,s,s,0.375096082687,2,1.18,-0.011048747452015137
1237,378,floete,s,s,0.349822998047,2,5.47,0.059637127214452974
1238,379,lehrer,s,l,0.572664022446,2,52.99,0.02279745000086481
1239,380,whisky,s,s,0.48075294494599996,2,10.0,-0.028942136992468608
1240,381,veilchen,s,s,0.464970111847,2,0.87,0.013582814805699707
1241,382,spatz,s,s,0.407623052597,2,2.44,0.1026294080044927
1242,383,kupfer,s,s,0.366305828094,2,0.91,-0.007827127203901905
1243,384,quarz,s,s,0.36512613296499996,2,0.98,0.37587919846568535
1244,385,birke,s,s,0.33987593650799997,2,0.24,0.059274957439623965
1245,386,wein,s,s,0.330651044846,2,48.39,0.04980957093650978
1246,387,maurer,s,s,0.377481937408,2,0.35,0.02640939528533873
1247,388,eiche,s,s,0.368046998978,2,1.93,0.02326403414749964
1248,389,karpfen,s,s,0.350926876068,2,1.73,0.13433001451714258
1249,390,trauerweide,s,s,0.36586689949,2,0.08,0.1284341900808558
1250,391,fichte,s,s,0.4126341342930001,2,0.08,0.1684536115861162
1251,392,ahorn,s,s,0.33092713356,2,0.39,0.3765288073382321
1252,393,birke,s,s,0.370327949524,2,0.24,0.4607024078574186
1253,394,qualle,s,s,0.344663858414,2,0.71,0.08804845586769293
1254,395,golf,s,s,0.327452898026,2,15.51,0.03804590099928192
1255,396,lama,s,s,0.390392065048,2,4.09,0.017558369040971775
1256,397,schleichen,s,s,0.30895805358899997,2,5.55,-0.004191870966531982
1257,398,hans,l,s,0.315576076508,2,10.59,-0.005098932358361243
1258,399,fledermaus,s,s,0.48467493057300004,2,3.39,-0.004949928754602904
1259,400,spucken,s,s,0.395126819611,2,3.98,0.11878165262533973
1260,401,affe,s,s,0.48644495010399996,2,16.77,0.0963687322347565
1261,402,loetkolben,s,s,0.413156032562,2,0.12,0.03751072127717573
1262,403,gnu,s,s,0.40408205986,2,0.04,0.022270407589842688
1263,404,amsel,s,s,0.363451004028,2,0.63,-0.008022060384572366
1264,405,pinguin,s,s,0.46558189392099997,2,2.32,0.17246850855227971
1265,406,quark,s,s,0.328174114227,2,0.51,0.10249635472367484
1266,407,keuchen,s,miss,999.0,2,2.32,-0.010275928493655743
1267,408,katerina,l,s,0.548093080521,2,0.24,0.007155092867659077
1268,409,spatz,s,s,0.707186937332,2,2.44,0.028237058327199336
1269,410,qualle,s,s,0.393872022629,2,0.71,0.011016524473273236
1270,411,adler,s,s,0.394353866577,2,6.58,-0.015960093714286482
1271,412,jacke,s,s,0.3855719566350001,2,27.8,0.17934696026268007
1272,413,storch,s,s,0.369521856308,2,0.75,0.1425167473470226
1273,414,hai,s,s,0.364500999451,2,8.15,0.09410831136360788
1274,415,ricarda,l,l,0.53599190712,2,0.08,-0.02587839505273361
1275,416,methan,s,s,0.42657494545,2,0.87,-0.03566342107983946
1276,417,schreiner,s,s,0.39288806915299995,2,0.83,0.01804701665657931
1277,418,karpfen,s,s,0.408185005188,2,1.73,0.002737499226689337
1278,419,goldfisch,s,s,0.4463150501250001,2,1.97,0.2102597164031002
1279,420,lachs,s,s,0.405148029327,2,3.5,0.2428449157441889
1280,421,benjamin,l,l,0.568897008896,2,7.36,0.01577375538684855
1281,422,granit,s,s,0.431386947632,2,0.71,0.08445187372184933
1282,423,forelle,s,s,0.462432861328,2,0.63,0.05098882820069226
1283,424,fledermaus,s,s,0.536242008209,2,3.39,0.19258403413526512
1284,425,puma,s,s,0.4756901264190001,2,1.18,0.11007503868209442
1285,426,loewe,s,s,0.402436971664,2,5.51,0.1027520624981258
1286,427,jaqueline,l,l,0.536120176315,2,0.35,-0.048158206573916236
1287,428,ricarda,l,l,0.552082061768,2,0.08,0.09512582069914614
1288,429,dietmar,l,l,0.536049127579,2,0.12,0.12026603032810144
1289,430,steak,s,s,0.536540031433,2,9.92,-0.014807847310893112
1290,431,leopard,s,s,0.535995006561,2,1.89,0.08838044302798717
1291,432,franziska,l,s,0.536115169525,2,0.04,0.03825608906345075
1292,433,tiger,s,s,0.553879022598,2,17.24,-0.01332355895277842
1293,434,tulpe,s,s,0.440153121948,2,0.55,0.11145143879099
1294,435,panther,s,s,0.536193847656,2,1.85,0.13008148793458804
1295,0,wein,s,miss,999.0,3,48.39,0.0
1296,1,samson,l,s,0.596289224923,3,1.5,-0.023793590375751086
1297,2,panther,s,miss,999.0,3,1.85,0.1477499221523337
1298,3,kuchen,s,l,0.563682822773,3,37.8,0.0639707904138747
1299,4,ina,l,l,0.483674612158,3,0.55,-0.0026873127473293424
1300,5,joghurt,s,s,0.649873746734,3,2.24,0.0182708288773749
1301,6,lukas,l,l,0.570610226743,3,2.64,-0.05946727470406736
1302,7,tiger,s,s,0.6280956959239999,3,17.24,-0.024922440422551068
1303,8,leopard,s,l,0.641916997323,3,1.89,0.4434792462631304
1304,9,tennis,s,s,0.662196007266,3,4.96,-0.007524984689213825
1305,10,ulrike,l,s,0.45224818392300004,3,0.98,-0.05893417179090805
1306,11,wandern,s,s,0.620470993425,3,7.09,-0.0059007032011602545
1307,12,ulrike,l,l,0.49378091242399996,3,0.98,-0.0059007032011602545
1308,13,louise,l,l,0.559370137198,3,7.99,0.22826925718556085
1309,14,lea,l,l,0.47972325398599996,3,0.94,0.17493387826261855
1310,15,loewe,s,l,0.437496245606,3,5.51,-0.0224801949827288
1311,16,loewe,s,l,0.595540610084,3,5.51,1.0000000000000002
1312,17,methan,s,l,0.6808642878899999,3,0.87,-0.06893145005580527
1313,18,puma,s,l,0.3944436478490001,3,1.18,-0.04267127875265033
1314,19,forelle,s,s,0.845430355432,3,0.63,0.0539129226506035
1315,20,lilie,s,l,0.853911437065,3,0.71,0.13113271023288448
1316,21,lachs,s,s,0.728446910973,3,3.5,0.06841373054923143
1317,22,goldfisch,s,s,0.61783846523,3,1.97,0.2428449157441889
1318,23,karpfen,s,s,0.523618345294,3,1.73,0.2102597164031002
1319,24,hai,s,s,0.573620986572,3,8.15,0.12476429878683498
1320,25,storch,s,s,0.505888248124,3,0.75,0.09410831136360788
1321,26,max,l,l,0.5230928055830001,3,40.47,-0.01471830708451639
1322,27,adler,s,s,0.42493883543600003,3,6.58,-0.011780541394397806
1323,28,felix,l,l,0.510139957769,3,6.69,0.02119441852563354
1324,29,spatz,s,s,0.47233913457599996,3,2.44,0.011416984594633296
1325,30,sebastian,l,l,0.488760966982,3,19.13,0.02501605664448618
1326,31,saege,s,s,0.533113981131,3,3.11,0.012847908319173129
1327,32,inga,l,l,0.7443287143539999,3,1.38,0.008362796621839641
1328,33,erpressung,s,s,0.658248271473,3,6.3,0.026356238380883967
1329,34,pinguin,s,s,0.628291301749,3,2.32,0.036771018025290016
1330,35,lama,s,s,0.80403014383,3,4.09,0.08069530349438084
1331,36,broetchen,s,s,0.669566241093,3,5.75,0.004196728319070622
1332,37,spatz,s,s,0.5106102569259999,3,2.44,0.039194912412345635
1333,38,amsel,s,s,0.519371767266,3,0.63,0.14413569095827525
1334,39,gnu,s,s,0.516938165296,3,0.04,-0.008022060384572366
1335,40,ulrike,l,l,0.62929197037,3,0.98,0.037028164469072665
1336,41,affe,s,s,0.706798056635,3,16.77,-0.008553487800977411
1337,42,fledermaus,s,s,0.459984876768,3,3.39,0.1842058686205756
1338,43,brandstiftung,s,s,0.4726548810140001,3,2.52,0.015781757764862896
1339,44,gerhard,l,s,0.384958275303,3,2.68,-0.033770527080357535
1340,45,lama,s,s,0.564818725019,3,4.09,-0.09226904929346297
1341,46,sagen,s,s,0.541652416316,3,1458.48,-0.03924843975213276
1342,47,beil,s,s,0.398955863406,3,1.69,-0.03624071680786183
1343,48,qualle,s,s,0.489112634823,3,0.71,-0.08247572552969139
1344,49,ahorn,s,s,0.43361612659599996,3,0.39,0.005712613382162288
1345,50,fichte,s,s,0.38866452247,3,0.08,0.3765288073382321
1346,51,jacke,s,s,0.37141498772,3,27.8,0.002888150953719777
1347,52,rock,s,s,0.5758215519600001,3,26.18,0.031004666224006126
1348,53,trauerweide,s,s,0.5575312010769999,3,0.08,0.0048759273071882075
1349,54,eiche,s,s,0.47437548771300003,3,1.93,0.3425921152579817
1350,55,chlor,s,s,0.480772220355,3,0.63,0.02774843459022609
1351,56,psychiater,s,s,0.5063096458030001,3,10.51,-0.008814251560359972
1352,57,kupfer,s,s,0.525997008546,3,0.91,-0.029217385494714605
1353,58,lachs,s,s,0.43478191309299996,3,3.5,0.03509534827264752
1354,59,aylin,l,s,0.394195820118,3,0.0,-0.02702571831972834
1355,60,quark,s,s,0.462295621342,3,0.51,-0.012154765481147056
1356,61,birke,s,s,0.568980178301,3,0.24,0.04104578282750712
1357,62,elisabeth,l,l,0.536794268264,3,2.87,-0.057696570662752286
1358,63,begehren,s,s,0.40986752835999996,3,2.01,-0.010205265526493257
1359,64,veilchen,s,s,0.449253724568,3,0.87,0.09826481904934453
1360,65,lukas,l,l,0.469896174996,3,2.64,0.038280327737054684
1361,66,loetkolben,s,s,0.4388374132399999,3,0.12,-0.06169625666066514
1362,67,granit,s,s,0.5116885037860001,3,0.71,0.038104206122403984
1363,68,goldfisch,s,s,0.4508970548920001,3,1.97,0.0237810908255433
1364,69,orchidee,s,s,0.47627087179,3,2.13,0.10027894246024036
1365,70,tulpe,s,s,0.481545587769,3,0.55,0.2956166724760529
1366,71,lilie,s,s,0.408902479336,3,0.71,0.3452477878982852
1367,72,aktien,s,s,0.555019719061,3,8.03,-0.03897310254662647
1368,73,moegen,s,s,0.42432545428199997,3,0.12,-0.03720401903193206
1369,74,rose,s,s,0.380685737211,3,45.12,-0.0008301034321992897
1370,75,sprinten,s,s,0.47556089513800004,3,0.16,-0.07057773915005969
1371,76,sebastian,l,l,0.534101669764,3,19.13,0.1195993694499447
1372,77,christian,l,l,0.567877480731,3,10.63,0.33256365454979525
1373,78,hemd,s,s,0.511827963492,3,28.43,-0.020770632931131863
1374,79,polizist,s,s,0.43200932146300003,3,48.86,0.07541726350271273
1375,80,ulrike,l,l,0.537660910661,3,0.98,-0.028511776875786817
1376,81,kaktus,s,miss,999.0,3,2.4,-0.012489020891435993
1377,82,urologe,s,s,0.692800166609,3,0.08,0.04316393409603946
1378,83,verehren,s,s,0.47435858348000004,3,2.05,-0.054510347908516006
1379,84,tina,l,l,0.491216906637,3,10.24,0.0306280164098142
1380,85,bambus,s,s,0.45701607561200003,3,2.72,0.034062878832623295
1381,86,moos,s,s,0.370678749139,3,1.57,0.20604743132655395
1382,87,algen,s,s,0.45807439961900004,3,1.18,0.19074158659831789
1383,88,kaffee,s,s,0.3757632928320001,3,108.51,0.03733946307803294
1384,89,orchidee,s,s,0.35688733196,3,2.13,0.0915519140087333
1385,90,efeu,s,s,0.35994850253300004,3,0.35,0.11998502384910675
1386,91,verschlingen,s,s,0.513345719693,3,2.64,0.03577929680754203
1387,92,zacharias,l,s,0.476548583742,3,0.12,0.020876097853794632
1388,93,husten,s,s,0.681119058427,3,7.05,0.08638129265822186
1389,94,ahorn,s,s,0.37454951045199997,3,0.39,0.07760174648964897
1390,95,steinmetz,s,s,0.495817567396,3,0.55,0.003693277670956107
1391,96,sehen,s,s,0.358716910414,3,1388.01,-0.03449762083715124
1392,97,schmied,s,s,0.359214980766,3,1.69,-0.08521184812727725
1393,98,verfolgen,s,s,0.331277761754,3,41.89,-0.047756972670385
1394,99,maurer,s,s,0.341527144075,3,0.35,-0.010075421028895056
1395,100,helmut,l,s,0.329932669934,3,1.46,-0.08023344171973383
1396,101,schreiner,s,s,0.732925619988,3,0.83,-0.04063831995572638
1397,102,algen,s,s,0.42042058266800003,3,1.18,-0.014944095973373338
1398,103,tiger,s,s,0.411365059903,3,17.24,-0.009878263280430913
1399,104,tischler,s,s,0.41037405084399997,3,0.47,-0.046996596758078574
1400,105,axt,s,s,0.36689371630199996,3,6.93,0.052786972927683605
1401,106,bert,l,s,0.30005690074200003,3,5.28,-0.026441333756777444
1402,107,notarzt,s,s,0.534498013003,3,5.04,-0.0066239045179220975
1403,108,richter,s,s,0.382052563044,3,35.2,0.08779556977717823
1404,109,sven,l,l,0.454300233803,3,2.68,-0.07299973351786934
1405,110,hausarzt,s,s,0.459662489418,3,0.79,-0.019737094182200692
1406,111,urologe,s,s,0.44401975983099995,3,0.08,0.2475359741959299
1407,112,psychiater,s,s,0.41561043049999996,3,10.51,0.4593040856823494
1408,113,mohammed,l,s,0.448475527402,3,2.56,0.003486291943371209
1409,114,chirurg,s,s,0.623135820759,3,6.5,0.028055560439336484
1410,115,professor,s,s,0.396948187117,3,61.77,0.15693524076160084
1411,116,joggen,s,s,0.411342118488,3,2.99,-0.007879845031679359
1412,117,pfarrer,s,s,0.47313574529799995,3,15.0,-0.030451438521683038
1413,118,agathe,l,s,0.343416189105,3,1.38,0.007822226518650614
1414,119,lehrer,s,s,0.397856184456,3,52.99,-0.02357196462953736
1415,120,polizist,s,s,0.350791856414,3,48.86,0.2408746532371133
1416,121,springen,s,s,0.8034961520460001,3,35.08,0.07440199897542303
1417,122,whisky,s,s,0.502233015432,3,10.0,0.0438917860071564
1418,123,amsel,s,s,0.727319158934,3,0.63,-0.099445464708343
1419,124,richter,s,s,0.544646271941,3,35.2,0.051426470501898025
1420,125,rugby,s,s,0.5484445866600001,3,0.63,0.016007761426127625
1421,126,braten,s,s,0.48799182561899995,3,6.02,-0.044797243011748665
1422,127,samson,l,l,0.635292359744,3,1.5,0.017438486846439283
1423,128,gert,l,l,0.594762714754,3,0.24,-0.06327858248271062
1424,129,lehrer,s,s,0.596217382059,3,52.99,-0.06165850667776191
1425,130,zange,s,s,0.483075418393,3,2.36,-0.06460382642263178
1426,131,filet,s,s,0.45184640720299996,3,0.51,0.0944500178074861
1427,132,gefluegel,s,s,0.4943801061600001,3,0.75,0.21821561918380825
1428,133,platin,s,s,0.4084282559920001,3,1.06,0.05971975009395032
1429,134,schnitzel,s,s,0.42722331814000003,3,1.46,0.02804211216678297
1430,135,steak,s,s,0.40678311450800003,3,9.92,0.2638589924992933
1431,136,buttermilch,s,s,0.527288369136,3,0.35,0.12206467927223845
1432,137,nina,l,s,0.391261732962,3,18.7,-0.0061620977959215215
1433,138,sahne,s,s,0.459550197178,3,5.32,0.023965054302495858
1434,139,sahne,s,s,0.382338727097,3,5.32,1.0000000000000002
1435,140,kredit,s,s,0.492265269248,3,8.66,0.00582169081755473
1436,141,quark,s,s,0.644986016297,3,0.51,0.0268992958772488
1437,142,schmied,s,s,0.4596697340600001,3,1.69,0.005577821418741178
1438,143,kaese,s,s,0.439927130792,3,0.28,0.08051693060177001
1439,144,joghurt,s,s,0.439284167252,3,2.24,0.6174008760037452
1440,145,eisen,s,s,0.439145914977,3,8.9,0.10215966103015793
1441,146,agathe,l,l,0.5410565430650001,3,1.38,-0.012535391449929744
1442,147,marmor,s,s,0.477862282045,3,1.18,0.01112581893068083
1443,148,fledermaus,s,s,0.508118697733,3,3.39,0.052664079643653015
1444,149,windbeutel,s,s,0.44252403944799995,3,0.47,0.06683321912242922
1445,150,waffeln,s,s,0.496548070572,3,3.58,0.2327010650988195
1446,151,bettina,l,l,0.548027716868,3,0.16,-0.009904124909630534
1447,152,hans,l,l,0.523041489243,3,10.59,0.26578247506706937
1448,153,kekse,s,s,0.586204356747,3,16.06,-0.0027761256839416017
1449,154,haus,s,s,0.663020087319,3,406.43,0.03614183059894383
1450,155,windbeutel,s,s,0.40728842953100003,3,0.47,0.011438670773062924
1451,156,broetchen,s,s,0.430658796133,3,5.75,0.2535832776745519
1452,157,ricarda,l,s,0.442477552861,3,0.08,0.08341140454779324
1453,158,kuchen,s,s,0.542479816824,3,37.8,0.026405557812801985
1454,159,mezzo-mix,s,s,0.7068098291930001,3,0.0,0.0
1455,160,mezzo-mix,s,s,0.484228224872,3,0.0,0.0
1456,161,pepsi,s,s,0.618313292303,3,1.69,0.0
1457,162,sprite,s,s,0.481171582214,3,0.12,0.1960171315380501
1458,163,fanta,s,s,0.498496582179,3,1.85,0.16901673184826235
1459,164,cola,s,s,0.398641022592,3,11.89,0.21653504337331345
1460,165,rum,s,s,0.508291965816,3,86.81,0.1528824552475518
1461,166,quarz,s,s,0.46718908712499996,3,0.98,0.031219579395656376
1462,167,tulpe,s,s,0.418347704428,3,0.55,-0.0552234529749703
1463,168,diktatur,s,s,0.63352375722,3,1.06,-0.016118199398677716
1464,169,lukas,l,l,0.6061401509800001,3,2.64,-0.07284923309174472
1465,170,scotch,s,s,0.47689119578,3,9.37,-0.05376643596415066
1466,171,jagen,s,s,0.413953818323,3,38.03,-0.036499683668450834
1467,172,tee,s,s,0.380445154151,3,59.06,0.014950089420655932
1468,173,whisky,s,s,0.357086861972,3,10.0,0.33901156233424057
1469,174,wein,s,s,0.346699529269,3,48.39,0.40090554852119054
1470,175,wasser,s,s,0.387813576788,3,222.53,0.1956868518575795
1471,176,krawatte,s,s,0.427881978481,3,10.75,-0.018572974175203517
1472,177,franziska,l,s,0.47325347102,3,0.04,0.005975451441266282
1473,178,bier,s,s,0.5411093686999999,3,83.07,-0.05491603879874055
1474,179,saft,s,s,0.566925109859,3,12.36,0.31136423164477633
1475,180,sven,l,l,0.5388203581100001,3,2.68,-0.037755884352908914
1476,181,trinkschokolade,s,s,0.67396676814,3,0.04,-0.04437519854689671
1477,182,wasser,s,s,0.502054313809,3,222.53,0.1806000305084985
1478,183,kriechen,s,s,0.495865865116,3,7.6,0.31073041301744464
1479,184,sprechen,s,s,0.374742399523,3,332.3,0.18930418481504285
1480,185,huepfen,s,s,0.400387891161,3,3.66,0.222806116627216
1481,186,kaffee,s,s,0.342341564567,3,108.51,0.03999934616021126
1482,187,veilchen,s,s,0.387602576084,3,0.87,0.04266280612569533
1483,188,tee,s,s,0.37921446756800004,3,59.06,0.12112357530119686
1484,189,louise,l,s,0.386406905367,3,7.99,-0.00877883741567408
1485,190,schal,s,s,0.6550681677179999,3,4.06,0.08304317532513783
1486,191,trinkschokolade,s,s,0.538830017642,3,0.04,0.10683784631248064
1487,192,jenny,l,l,0.495924124261,3,15.12,0.04126415928085634
1488,193,kekse,s,s,0.42660450347499995,3,16.06,0.05507655111434587
1489,194,floete,s,s,0.474244781944,3,5.47,-0.04767697221929704
1490,195,hans,l,l,0.600241186796,3,10.59,-0.002323261011457219
1491,196,saft,s,s,0.523720072379,3,12.36,0.03947503679954178
1492,197,bert,l,s,0.45656630297899997,3,5.28,-0.0070924018956592515
1493,198,zinsen,s,s,0.559493598295,3,4.88,0.040501334168653716
1494,199,gerhard,l,l,0.540153979207,3,2.68,0.0216325411751686
1495,200,krawatte,s,s,0.446968034434,3,10.75,-0.0016368832437782886
1496,201,axel,l,l,0.7522033576100001,3,4.49,0.014421214645872362
1497,202,elisabeth,l,l,0.5511073009399999,3,2.87,0.08402635667642931
1498,203,lieben,s,s,0.537323430297,3,136.03,0.09963594894028337
1499,204,rennen,s,s,0.48509033938199997,3,54.41,0.0491550042638516
1500,205,boerse,s,s,0.452191434102,3,4.29,0.006429879695608076
1501,206,keuchen,s,s,0.398480734497,3,2.32,-0.0047874298188014365
1502,207,helene,l,l,0.521272584854,3,6.42,-0.019340325515299208
1503,208,hemd,s,s,0.5769912626420001,3,28.43,-0.03293624436239217
1504,209,pullover,s,s,0.441475676809,3,5.24,0.5572863350557878
1505,210,gehen,s,s,0.422575567092,3,1440.25,0.042220335101818274
1506,211,socken,s,s,0.43838160339500004,3,14.21,0.007123259029308599
1507,212,kommunismus,s,s,0.596808727394,3,2.01,0.03390294546292148
1508,213,professor,s,s,0.472453237977,3,61.77,0.003013210451691633
1509,214,hose,s,s,0.621446003875,3,40.4,-0.02153027319358601
1510,215,bettina,l,l,0.478688173258,3,0.16,0.06435426993383378
1511,216,jacke,s,s,0.3741872774840001,3,27.8,-0.0038983701787404968
1512,217,burg,s,s,0.382241226034,3,9.92,0.09085593643463888
1513,218,riechen,s,s,0.493276503024,3,20.47,0.04918236789216236
1514,219,garage,s,s,0.528479511966,3,14.84,0.0424006211214455
1515,220,qualle,s,s,0.444054171938,3,0.71,0.040822805955295145
1516,221,thomas,l,l,0.742436348868,3,24.65,0.04420710272714128
1517,222,kapitalismus,s,s,0.56283368828,3,1.85,0.04961118124138367
1518,223,notarzt,s,s,0.430198458402,3,5.04,-0.03127572069395769
1519,224,jeans,s,l,0.47371169575499994,3,5.28,-0.04176579144697487
1520,225,ledermantel,s,s,0.502111667389,3,0.08,0.08643967665807382
1521,226,rock,s,s,0.548654379905,3,26.18,0.031571449777357666
1522,227,fichte,s,s,0.44815434748300004,3,0.08,0.04203464559110195
1523,228,david,l,s,0.501989111857,3,102.01,0.030947918835841907
1524,229,sven,l,l,0.5842691270520001,3,2.68,0.14732380144094695
1525,230,gitarre,s,s,0.49225560971500004,3,9.29,0.009340728570275306
1526,231,schlagzeug,s,s,0.476814523106,3,1.54,0.5113731022034949
1527,232,fragen,s,s,0.5559865792459999,3,350.05,-0.06886930189560407
1528,233,ludwig,l,l,0.614196212555,3,3.94,-0.055366103293723816
1529,234,schwert,s,s,0.616683545697,3,63.66,-0.0549985582346999
1530,235,ludwig,l,s,0.485329413146,3,3.94,-0.0549985582346999
1531,236,rum,s,s,0.552452090924,3,86.81,-0.03239494988653106
1532,237,mohammed,l,l,0.555468284234,3,2.56,0.032350746364883075
1533,238,schnitzel,s,s,0.65399897669,3,1.46,-0.0017044658589208572
1534,239,tischler,s,s,0.604155717941,3,0.47,0.04589827149824637
1535,240,floete,s,s,0.500282088935,3,5.47,0.031396231171564835
1536,241,klavier,s,miss,999.0,3,11.42,0.7575010157669474
1537,242,geige,s,s,0.712889909861,3,3.31,0.4752730036814629
1538,243,fuehlen,s,s,0.885339676432,3,0.2,-0.014443531750804152
1539,244,bogen,s,s,0.5944856065030001,3,7.76,-0.03679527117635125
1540,245,sprite,s,s,0.47530069111999995,3,0.12,0.03716587536918304
1541,246,schwert,s,s,0.550567875674,3,63.66,0.0776482223092603
1542,247,keule,s,s,0.406281723699,3,1.77,0.3271491914482565
1543,248,eiche,s,s,0.5212608122969999,3,1.93,0.17629752689422032
1544,249,beil,s,s,0.466842852766,3,1.69,0.054606564152656085
1545,250,keule,s,s,0.501799241436,3,1.77,0.22107407629461853
1546,251,laufen,s,s,0.5444394972869999,3,136.66,0.12056692508744445
1547,252,axt,s,s,0.45577422017200003,3,6.93,0.05591059394786296
1548,253,saege,s,s,0.472175526025,3,3.11,0.4192127200594977
1549,254,hose,s,s,0.38786610055799997,3,40.4,0.2130926480081248
1550,255,feile,s,s,0.40500455055699996,3,0.43,0.19768707314769904
1551,256,matthias,l,l,0.612085299828,3,0.67,-0.014673634071376491
1552,257,loetkolben,s,s,0.50071344804,3,0.12,0.013225015408710973
1553,258,gefluegel,s,s,0.51701906402,3,0.75,0.01709432993329191
1554,259,schal,s,s,0.527961820655,3,4.06,0.04129708838183701
1555,260,pinguin,s,s,0.42646926982,3,2.32,0.12705880828760316
1556,261,leonie,l,l,0.6925795063429999,3,0.43,0.022223245951755267
1557,262,zange,s,s,0.471433853992,3,2.36,-0.017996891275634683
1558,263,scotch,s,s,0.5589143273830001,3,9.37,0.016656160892872782
1559,264,benjamin,l,l,0.573733580677,3,7.36,-0.06304950926627728
1560,265,hammer,s,s,0.520515216049,3,14.88,0.006484947453139652
1561,266,joachim,l,l,0.5719251324769999,3,0.12,-0.023186088518118028
1562,267,benjamin,l,l,0.527854358195,3,7.36,0.0832753428672673
1563,268,kaktus,s,s,0.521220061084,3,2.4,-0.00790317472387397
1564,269,garage,s,s,0.45755218042199997,3,14.84,0.009403895647424028
1565,270,schleichen,s,s,0.46225637945500003,3,5.55,0.14791482269109998
1566,271,halle,s,s,0.523149555433,3,9.41,0.038244903679800005
1567,272,birke,s,s,0.382818082056,3,0.24,0.026935129402676727
1568,273,maurer,s,s,0.37734443982500004,3,0.35,0.05875770276738119
1569,274,schlagzeug,s,s,0.437316940282,3,1.54,0.042686396253366066
1570,275,nelly,l,l,0.5380527260419999,3,0.98,-0.005113726939090348
1571,276,david,l,l,0.455160838988,3,102.01,0.08770729825328698
1572,277,halle,s,s,0.45614520713600004,3,9.41,0.021930635304716804
1573,278,nina,l,l,0.5365766265899999,3,18.7,-0.06621237198535514
1574,279,huette,s,s,0.45803938378200004,3,17.99,0.00422256278083635
1575,280,haus,s,s,0.529666730581,3,406.43,0.1445082671415267
1576,281,burg,s,s,0.66278674893,3,9.92,0.12102176981609228
1577,282,chirurg,s,s,0.36296288471199994,3,6.5,-0.048381765064614224
1578,283,beton,s,s,0.63842295832,3,3.07,-0.012932871641817395
1579,284,marmor,s,s,0.420173660532,3,1.18,0.4567885692766092
1580,285,monarchie,s,s,0.4686283595220001,3,0.75,-0.0058040592798161185
1581,286,granit,s,s,0.47654526328599994,3,0.71,-0.010054077012936345
1582,287,golf,s,s,0.464597008249,3,15.51,-0.06455555553605075
1583,288,quarz,s,s,0.369107563572,3,0.98,0.005444239263826797
1584,289,singen,s,s,0.36335319076899997,3,61.14,-0.03925371805460884
