subject,age,sex,house,nutella,movie,temperature,block,trial,cue_cond,cue_valence,cue_cond_pos,cue_cond_side,cue_neutral,cue_neutral_pos,cue_neutral_side,target_pos,target_side,duration,fixation,fixation_direction,response,correct,rt
Harry,26,männlich,Gryffindor,das,Der Pate,35,0,0,Anschlag,negative,200,right,Name,-200,left,-200,left,1,cross,None,x,True,0.329257011414
Harry,26,männlich,Gryffindor,das,Der Pate,35,0,1,Verletzung,negative,200,right,Brille,-200,left,-200,left,0.04,cross,None,x,True,0.315806865692
Harry,26,männlich,Gryffindor,das,Der Pate,35,0,2,Verzweiflung,negative,-200,right,Laden,200,right,200,right,1,cross,None,m,True,0.293422937393
Harry,26,männlich,Gryffindor,das,Der Pate,35,0,3,Eleganz,positive,200,right,Januar,-200,left,200,right,1,cross,None,m,True,0.305186033249
Harry,26,männlich,Gryffindor,das,Der Pate,35,0,4,Hässlichkeit,negative,-200,right,Cola,200,right,-200,left,1,cross,None,x,True,0.328813791275
Harry,26,männlich,Gryffindor,das,Der Pate,35,0,5,Panik,negative,-200,right,Anzug,200,right,-200,left,1,cross,None,x,True,0.333737134933
Harry,26,männlich,Gryffindor,das,Der Pate,35,0,6,Schleim,negative,-200,right,Ausweis,200,right,-200,left,0.04,cross,None,x,True,0.312689781189
Harry,26,männlich,Gryffindor,das,Der Pate,35,0,7,Wohlstand,positive,-200,right,Schinken,200,right,-200,left,0.04,cross,None,x,True,0.433069944382
Harry,26,männlich,Gryffindor,das,Der Pate,35,0,8,Geisel,negative,-200,right,Computer,200,right,-200,left,1,cross,None,x,True,0.324443101883
Harry,26,männlich,Gryffindor,das,Der Pate,35,0,9,Rache,negative,200,right,Passant,-200,left,-200,left,0.04,cross,None,x,True,0.322088003159
Harry,26,männlich,Gryffindor,das,Der Pate,35,0,10,Tod,negative,-200,right,Brücke,200,right,200,right,0.04,cross,None,m,True,0.342173099518
Harry,26,männlich,Gryffindor,das,Der Pate,35,0,11,Schatz,positive,-200,right,Supermarkt,200,right,-200,left,1,cross,None,x,True,0.481807947159
Harry,26,männlich,Gryffindor,das,Der Pate,35,0,12,Bewunderung,positive,200,right,Flughafen,-200,left,200,right,0.04,cross,None,m,True,0.419010162354
Harry,26,männlich,Gryffindor,das,Der Pate,35,0,13,Droge,negative,-200,right,Tag,200,right,-200,left,0.04,cross,None,x,True,0.31249499321
Harry,26,männlich,Gryffindor,das,Der Pate,35,0,14,Trennung,negative,200,right,Berg,-200,left,-200,left,1,cross,None,x,True,0.321591854095
Harry,26,männlich,Gryffindor,das,Der Pate,35,0,15,Gefängnis,negative,200,right,Park,-200,left,200,right,1,cross,None,m,True,0.276160955429
Harry,26,männlich,Gryffindor,das,Der Pate,35,0,16,Mord,negative,-200,right,Septmeber,200,right,-200,left,1,cross,None,x,True,0.299006938934
Harry,26,männlich,Gryffindor,das,Der Pate,35,0,17,Gestank,negative,-200,right,Wind,200,right,-200,left,0.04,cross,None,x,True,0.367794036865
Harry,26,männlich,Gryffindor,das,Der Pate,35,0,18,Schrei,negative,200,right,Kugelschrieber,-200,left,-200,left,0.04,cross,None,x,True,0.370423078537
Harry,26,männlich,Gryffindor,das,Der Pate,35,0,19,Harmonie,positive,200,right,Rock,-200,left,-200,left,1,cross,None,x,True,0.364202022552
Harry,26,männlich,Gryffindor,das,Der Pate,35,0,20,Trauer,negative,-200,right,Stuhl,200,right,-200,left,0.04,cross,None,x,True,0.348536014557
Harry,26,männlich,Gryffindor,das,Der Pate,35,0,21,Krieg,negative,-200,right,Kunde,200,right,200,right,0.04,cross,None,m,True,0.302598953247
Harry,26,männlich,Gryffindor,das,Der Pate,35,0,22,Bereicherung,positive,200,right,Bildschirm,-200,left,-200,left,0.04,cross,None,x,True,0.310281991959
Harry,26,männlich,Gryffindor,das,Der Pate,35,0,23,Rücksichtnahme,positive,200,right,Decke,-200,left,200,right,0.04,cross,None,m,True,0.319694042206
Harry,26,männlich,Gryffindor,das,Der Pate,35,0,24,Sucht,negative,200,right,Fahrschein,-200,left,-200,left,1,cross,None,x,True,0.250804185867
Harry,26,männlich,Gryffindor,das,Der Pate,35,1,0,Wunde,negative,200,right,Bluse,-200,left,200,right,0.04,hole,left,m,True,0.299492120743
Harry,26,männlich,Gryffindor,das,Der Pate,35,1,1,Ekel,negative,200,right,Dose,-200,left,200,right,0.04,hole,left,m,True,0.304585933685
Harry,26,männlich,Gryffindor,das,Der Pate,35,1,2,Angst,negative,200,right,Zuschauer,-200,left,-200,left,1,hole,right,x,True,0.296237945557
Harry,26,männlich,Gryffindor,das,Der Pate,35,1,3,Verehrung,positive,-200,right,Dolmetscherin,200,right,200,right,1,hole,right,m,True,0.301371097565
Harry,26,männlich,Gryffindor,das,Der Pate,35,1,4,Leidenschaft,positive,200,right,Dusche,-200,left,-200,left,1,hole,right,x,True,0.346520900726
Harry,26,männlich,Gryffindor,das,Der Pate,35,1,5,Belohnung,positive,-200,right,Drucker,200,right,-200,left,1,hole,right,x,True,0.303377151489
Harry,26,männlich,Gryffindor,das,Der Pate,35,1,6,Spaß,positive,-200,right,Juni,200,right,-200,left,1,hole,right,x,True,0.325500011444
Harry,26,männlich,Gryffindor,das,Der Pate,35,1,7,Kraft,positive,200,right,Diskette,-200,left,200,right,1,hole,left,m,True,0.306126117706
Harry,26,männlich,Gryffindor,das,Der Pate,35,1,8,Gerechtigkeit,positive,200,right,Wagen,-200,left,200,right,0.04,hole,right,m,True,0.294689178467
Harry,26,männlich,Gryffindor,das,Der Pate,35,1,9,Waffe,negative,-200,right,Gast,200,right,200,right,1,hole,right,m,True,0.319061040878
Harry,26,männlich,Gryffindor,das,Der Pate,35,1,10,Bombe,negative,200,right,Schlüssel,-200,left,-200,left,1,hole,left,x,True,0.328481912613
Harry,26,männlich,Gryffindor,das,Der Pate,35,1,11,Schönheit,positive,-200,right,Kaffee,200,right,-200,left,0.04,hole,right,x,True,0.368999004364
Harry,26,männlich,Gryffindor,das,Der Pate,35,1,12,Qual,negative,200,right,Fußboden,-200,left,200,right,0.04,hole,right,m,True,0.303349971771
Harry,26,männlich,Gryffindor,das,Der Pate,35,1,13,Wut,negative,-200,right,April,200,right,200,right,0.04,hole,left,m,True,0.365969896317
Harry,26,männlich,Gryffindor,das,Der Pate,35,1,14,Gesundheit,positive,200,right,Anruf,-200,left,200,right,0.04,hole,left,m,True,0.290764093399
Harry,26,männlich,Gryffindor,das,Der Pate,35,1,15,Terror,negative,200,right,Finger,-200,left,200,right,1,hole,right,m,True,0.301442861557
Harry,26,männlich,Gryffindor,das,Der Pate,35,1,16,Regen,negative,200,right,März,-200,left,-200,left,0.04,hole,left,x,True,0.334646940231
Harry,26,männlich,Gryffindor,das,Der Pate,35,1,17,Koma,negative,200,right,Teppich,-200,left,-200,left,1,hole,left,x,True,0.341081857681
Harry,26,männlich,Gryffindor,das,Der Pate,35,1,18,Beliebtheit,positive,-200,right,Kellner,200,right,-200,left,0.04,hole,left,x,True,0.357536077499
Harry,26,männlich,Gryffindor,das,Der Pate,35,1,19,Leid,negative,200,right,Dienstag,-200,left,200,right,1,hole,right,m,True,0.314835071564
Harry,26,männlich,Gryffindor,das,Der Pate,35,1,20,Schock,negative,-200,right,Garten,200,right,-200,left,0.04,hole,right,x,True,0.336846113205
Harry,26,männlich,Gryffindor,das,Der Pate,35,1,21,Pessimismus,negative,-200,right,Fernseher,200,right,200,right,0.04,hole,left,m,True,0.295026063919
Harry,26,männlich,Gryffindor,das,Der Pate,35,1,22,Reichtum,positive,-200,right,Eintrittskarte,200,right,-200,left,0.04,hole,right,x,True,0.346322059631
Harry,26,männlich,Gryffindor,das,Der Pate,35,1,23,Schrott,negative,-200,right,Geburtstag,200,right,-200,left,1,hole,left,x,True,0.390079975128
Harry,26,männlich,Gryffindor,das,Der Pate,35,1,24,Stärke,positive,-200,right,Pullover,200,right,200,right,0.04,hole,right,m,True,0.281399011612
Harry,26,männlich,Gryffindor,das,Der Pate,35,2,0,Mut,positive,200,right,Zug,-200,left,200,right,1,cross,None,m,True,0.278334856033
Harry,26,männlich,Gryffindor,das,Der Pate,35,2,1,Optimismus,positive,200,right,Herr,-200,left,200,right,0.04,cross,None,m,True,0.319380998611
Harry,26,männlich,Gryffindor,das,Der Pate,35,2,2,Ehrlichkeit,positive,200,right,Projektor,-200,left,-200,left,0.04,cross,None,x,True,0.315333127975
Harry,26,männlich,Gryffindor,das,Der Pate,35,2,3,Frohsinn,positive,-200,right,Tisch,200,right,200,right,0.04,cross,None,m,True,0.289052009583
Harry,26,männlich,Gryffindor,das,Der Pate,35,2,4,Attraktivität,positive,200,right,November,-200,left,-200,left,1,cross,None,x,True,0.300401210785
Harry,26,männlich,Gryffindor,das,Der Pate,35,2,5,Lachen,positive,200,right,Monitor,-200,left,200,right,1,cross,None,m,True,0.273599863052
Harry,26,männlich,Gryffindor,das,Der Pate,35,2,6,Frieden,positive,200,right,Locher,-200,left,-200,left,0.04,cross,None,x,True,0.324637889862
Harry,26,männlich,Gryffindor,das,Der Pate,35,2,7,Unglück,negative,-200,right,Keller,200,right,200,right,0.04,cross,None,m,True,0.273488998413
Harry,26,männlich,Gryffindor,das,Der Pate,35,2,8,Folter,negative,200,right,Hafen,-200,left,-200,left,0.04,cross,None,x,True,0.344091176987
Harry,26,männlich,Gryffindor,das,Der Pate,35,2,9,Solidarität,positive,200,right,Hut,-200,left,-200,left,1,cross,None,x,True,0.361912965775
Harry,26,männlich,Gryffindor,das,Der Pate,35,2,10,Horror,negative,200,right,Mai,-200,left,200,right,1,cross,None,m,True,0.280417919159
Harry,26,männlich,Gryffindor,das,Der Pate,35,2,11,Zufriedenheit,positive,200,right,Zeiger,-200,left,-200,left,0.04,cross,None,x,True,0.322150945663
Harry,26,männlich,Gryffindor,das,Der Pate,35,2,12,Hass,negative,200,right,Tee,-200,left,-200,left,0.04,cross,None,x,True,0.31129693985
Harry,26,männlich,Gryffindor,das,Der Pate,35,2,13,Erfolg,positive,-200,right,Adresse,200,right,-200,left,0.04,cross,None,x,True,0.446660995483
Harry,26,männlich,Gryffindor,das,Der Pate,35,2,14,Feind,negative,-200,right,Kakao,200,right,-200,left,1,cross,None,x,True,0.327435016632
Harry,26,männlich,Gryffindor,das,Der Pate,35,2,15,Krankheit,negative,200,right,Bank,-200,left,200,right,0.04,cross,None,m,True,0.315800905228
Harry,26,männlich,Gryffindor,das,Der Pate,35,2,16,Totschlag,negative,200,right,Kleiderhaken,-200,left,-200,left,0.04,cross,None,x,True,0.331650972366
Harry,26,männlich,Gryffindor,das,Der Pate,35,2,17,Kostbarkeit,positive,-200,right,Juli,200,right,-200,left,0.04,cross,None,x,True,0.353640079498
Harry,26,männlich,Gryffindor,das,Der Pate,35,2,18,Genuss,positive,200,right,Balkon,-200,left,-200,left,1,cross,None,x,True,0.299257993698
Harry,26,männlich,Gryffindor,das,Der Pate,35,2,19,Müll,negative,200,right,August,-200,left,200,right,0.04,cross,None,m,True,0.285786867142
Harry,26,männlich,Gryffindor,das,Der Pate,35,2,20,Freiheit,positive,-200,right,Apfel,200,right,200,right,1,cross,None,m,True,0.312272071838
Harry,26,männlich,Gryffindor,das,Der Pate,35,2,21,Liebe,positive,-200,right,Februar,200,right,-200,left,0.04,cross,None,x,True,0.293130159378
Harry,26,männlich,Gryffindor,das,Der Pate,35,2,22,Einsamkeit,negative,200,right,Sessel,-200,left,200,right,1,cross,None,m,True,0.296953201294
Harry,26,männlich,Gryffindor,das,Der Pate,35,2,23,Dankbarkeit,positive,200,right,Platz,-200,left,-200,left,0.04,cross,None,x,True,0.323141813278
Harry,26,männlich,Gryffindor,das,Der Pate,35,2,24,Unfall,negative,200,right,Bankkarte,-200,left,200,right,0.04,cross,None,m,True,0.306787967682
Harry,26,männlich,Gryffindor,das,Der Pate,35,3,0,Heimweh,negative,-200,right,Pass,200,right,200,right,1,hole,left,m,True,0.286293983459
Harry,26,männlich,Gryffindor,das,Der Pate,35,3,1,Zuverlässigkeit,positive,200,right,Einwohner,-200,left,-200,left,0.04,hole,right,x,True,0.329631090164
Harry,26,männlich,Gryffindor,das,Der Pate,35,3,2,Sturz,negative,-200,right,Baum,200,right,200,right,0.04,hole,left,m,True,0.243752002716
Harry,26,männlich,Gryffindor,das,Der Pate,35,3,3,Neid,negative,-200,right,Oktober,200,right,200,right,1,hole,right,m,True,0.298013210297
Harry,26,männlich,Gryffindor,das,Der Pate,35,3,4,Depression,negative,-200,right,Bahnhof,200,right,-200,left,1,hole,left,x,True,0.312798976898
Harry,26,männlich,Gryffindor,das,Der Pate,35,3,5,Lebensfreude,positive,-200,right,Apotheke,200,right,200,right,0.04,hole,right,m,True,0.319795131683
Harry,26,männlich,Gryffindor,das,Der Pate,35,3,6,Übelkeit,negative,200,right,Füller,-200,left,200,right,0.04,hole,left,m,True,0.315622091293
Harry,26,männlich,Gryffindor,das,Der Pate,35,3,7,Dummheit,negative,200,right,Bibliothek,-200,left,200,right,1,hole,right,m,True,0.363464832306
Harry,26,männlich,Gryffindor,das,Der Pate,35,3,8,Unterstützung,positive,200,right,Fuß,-200,left,200,right,0.04,hole,right,m,True,0.320416212082
Harry,26,männlich,Gryffindor,das,Der Pate,35,3,9,Schmerz,negative,200,right,Apfelsine,-200,left,200,right,1,hole,right,m,True,0.316446065903
Harry,26,männlich,Gryffindor,das,Der Pate,35,3,10,Armut,negative,-200,right,Zucker,200,right,200,right,1,hole,right,m,True,0.306302785873
Harry,26,männlich,Gryffindor,das,Der Pate,35,3,11,Sympathie,positive,200,right,Markt,-200,left,200,right,0.04,hole,right,m,True,0.318115949631
Harry,26,männlich,Gryffindor,das,Der Pate,35,3,12,Glück,positive,-200,right,Bedienung,200,right,200,right,1,hole,left,m,True,0.341938972473
Harry,26,männlich,Gryffindor,das,Der Pate,35,3,13,Entspannung,positive,-200,right,Bus,200,right,200,right,0.04,hole,left,m,True,0.293493032455
Harry,26,männlich,Gryffindor,das,Der Pate,35,3,14,Freundschaft,positive,-200,right,Marktplatz,200,right,-200,left,1,hole,left,x,True,0.326800823212
Harry,26,männlich,Gryffindor,das,Der Pate,35,3,15,Vergnügen,positive,-200,right,Beschreibung,200,right,200,right,0.04,hole,right,m,True,0.328667879105
Harry,26,männlich,Gryffindor,das,Der Pate,35,3,16,Tapferkeit,positive,200,right,Strumpf,-200,left,-200,left,0.04,hole,left,x,True,0.325886011124
Harry,26,männlich,Gryffindor,das,Der Pate,35,3,17,Anerkennung,positive,200,right,Eile,-200,left,200,right,1,hole,left,m,True,0.271969079971
Harry,26,männlich,Gryffindor,das,Der Pate,35,3,18,Wohlbefinden,positive,200,right,Bestellung,-200,left,-200,left,1,hole,left,x,True,0.340862989426
Harry,26,männlich,Gryffindor,das,Der Pate,35,3,19,Sicherheit,positive,-200,right,Löffel,200,right,200,right,1,hole,right,m,True,0.327919960022
Harry,26,männlich,Gryffindor,das,Der Pate,35,3,20,Geschenk,positive,-200,right,Schrank,200,right,-200,left,1,hole,left,x,True,0.354714155197
Harry,26,männlich,Gryffindor,das,Der Pate,35,3,21,Treue,positive,-200,right,RadiergummI,200,right,200,right,1,hole,left,m,True,0.378509998322
Harry,26,männlich,Gryffindor,das,Der Pate,35,3,22,Höflichkeit,positive,200,right,Koch,-200,left,200,right,0.04,hole,right,m,True,0.299717903137
Harry,26,männlich,Gryffindor,das,Der Pate,35,3,23,Hilfsbereitschaft,positive,200,right,Flur,-200,left,200,right,0.04,hole,right,m,True,0.308002948761
Harry,26,männlich,Gryffindor,das,Der Pate,35,3,24,Herzlichkeit,positive,200,right,Dezember,-200,left,200,right,0.04,hole,left,m,True,0.327813148499
