subject,age,sex,house,nutella,movie,temperature,block,trial,cue_cond,cue_valence,cue_cond_pos,cue_cond_side,cue_neutral,cue_neutral_pos,cue_neutral_side,target_pos,target_side,duration,fixation,fixation_direction,response,correct,rt
Hermine,24,weiblich,Gryffindor,das,Pulp Fiction,39,0,0,Zufriedenheit,positive,200,right,Kunde,-200,left,200,right,0.04,cross,None,m,True,0.360406160355
Hermine,24,weiblich,Gryffindor,das,Pulp Fiction,39,0,1,Erfolg,positive,200,right,Kaffee,-200,left,200,right,1,cross,None,m,True,0.30698299408
Hermine,24,weiblich,Gryffindor,das,Pulp Fiction,39,0,2,Attraktivität,positive,-200,right,Zucker,200,right,200,right,0.04,cross,None,m,True,0.310482025146
Hermine,24,weiblich,Gryffindor,das,Pulp Fiction,39,0,3,Belohnung,positive,200,right,Füller,-200,left,200,right,0.04,cross,None,m,True,0.305023908615
Hermine,24,weiblich,Gryffindor,das,Pulp Fiction,39,0,4,Müll,negative,200,right,August,-200,left,200,right,1,cross,None,m,True,0.32075881958
Hermine,24,weiblich,Gryffindor,das,Pulp Fiction,39,0,5,Rücksichtnahme,positive,200,right,Eintrittskarte,-200,left,-200,left,0.04,cross,None,x,True,0.379441022873
Hermine,24,weiblich,Gryffindor,das,Pulp Fiction,39,0,6,Schrei,negative,200,right,Fernseher,-200,left,200,right,1,cross,None,m,True,0.288242101669
Hermine,24,weiblich,Gryffindor,das,Pulp Fiction,39,0,7,Droge,negative,200,right,Sessel,-200,left,200,right,0.04,cross,None,m,True,0.298429012299
Hermine,24,weiblich,Gryffindor,das,Pulp Fiction,39,0,8,Kraft,positive,-200,right,Zuschauer,200,right,-200,left,0.04,cross,None,x,True,0.513082027435
Hermine,24,weiblich,Gryffindor,das,Pulp Fiction,39,0,9,Harmonie,positive,200,right,Bedienung,-200,left,-200,left,1,cross,None,x,True,0.336020946503
Hermine,24,weiblich,Gryffindor,das,Pulp Fiction,39,0,10,Leid,negative,-200,right,Flughafen,200,right,-200,left,1,cross,None,x,True,0.325289011002
Hermine,24,weiblich,Gryffindor,das,Pulp Fiction,39,0,11,Wut,negative,200,right,Fußboden,-200,left,-200,left,1,cross,None,x,True,0.282511949539
Hermine,24,weiblich,Gryffindor,das,Pulp Fiction,39,0,12,Folter,negative,-200,right,Computer,200,right,-200,left,0.04,cross,None,x,True,0.319777011871
Hermine,24,weiblich,Gryffindor,das,Pulp Fiction,39,0,13,Anerkennung,positive,-200,right,Bibliothek,200,right,-200,left,0.04,cross,None,x,True,0.374665021896
Hermine,24,weiblich,Gryffindor,das,Pulp Fiction,39,0,14,Waffe,negative,200,right,Kakao,-200,left,-200,left,1,cross,None,x,True,0.288651943207
Hermine,24,weiblich,Gryffindor,das,Pulp Fiction,39,0,15,Wohlstand,positive,-200,right,Flur,200,right,-200,left,0.04,cross,None,m,False,0.280572891235
Hermine,24,weiblich,Gryffindor,das,Pulp Fiction,39,0,16,Frieden,positive,-200,right,November,200,right,200,right,1,cross,None,m,True,0.333012104034
Hermine,24,weiblich,Gryffindor,das,Pulp Fiction,39,0,17,Genuss,positive,200,right,Keller,-200,left,200,right,1,cross,None,m,True,0.295350074768
Hermine,24,weiblich,Gryffindor,das,Pulp Fiction,39,0,18,Spaß,positive,200,right,Juli,-200,left,-200,left,1,cross,None,x,True,0.32729101181
Hermine,24,weiblich,Gryffindor,das,Pulp Fiction,39,0,19,Mut,positive,-200,right,Platz,200,right,200,right,0.04,cross,None,m,True,0.303920030594
Hermine,24,weiblich,Gryffindor,das,Pulp Fiction,39,0,20,Dankbarkeit,positive,200,right,Dolmetscherin,-200,left,-200,left,1,cross,None,x,True,0.366855859756
Hermine,24,weiblich,Gryffindor,das,Pulp Fiction,39,0,21,Stärke,positive,200,right,Markt,-200,left,-200,left,0.04,cross,None,x,True,0.333682060242
Hermine,24,weiblich,Gryffindor,das,Pulp Fiction,39,0,22,Verzweiflung,negative,-200,right,Bildschirm,200,right,200,right,1,cross,None,m,True,0.326910018921
Hermine,24,weiblich,Gryffindor,das,Pulp Fiction,39,0,23,Depression,negative,200,right,Cola,-200,left,-200,left,0.04,cross,None,x,True,0.307934999466
Hermine,24,weiblich,Gryffindor,das,Pulp Fiction,39,0,24,Totschlag,negative,-200,right,Herr,200,right,200,right,0.04,cross,None,m,True,0.314970970154
Hermine,24,weiblich,Gryffindor,das,Pulp Fiction,39,1,0,Bereicherung,positive,-200,right,Marktplatz,200,right,200,right,1,hole,left,m,True,0.301674127579
Hermine,24,weiblich,Gryffindor,das,Pulp Fiction,39,1,1,Lachen,positive,-200,right,Apfel,200,right,-200,left,0.04,hole,left,x,True,0.335879802704
Hermine,24,weiblich,Gryffindor,das,Pulp Fiction,39,1,2,Herzlichkeit,positive,-200,right,Wind,200,right,200,right,1,hole,left,m,True,0.282350063324
Hermine,24,weiblich,Gryffindor,das,Pulp Fiction,39,1,3,Eleganz,positive,200,right,Kleiderhaken,-200,left,-200,left,1,hole,right,x,True,0.321728944778
Hermine,24,weiblich,Gryffindor,das,Pulp Fiction,39,1,4,Leidenschaft,positive,200,right,Brücke,-200,left,-200,left,1,hole,right,x,True,0.361777067184
Hermine,24,weiblich,Gryffindor,das,Pulp Fiction,39,1,5,Regen,negative,-200,right,Wagen,200,right,-200,left,0.04,hole,left,x,True,0.326616048813
Hermine,24,weiblich,Gryffindor,das,Pulp Fiction,39,1,6,Unfall,negative,200,right,Beschreibung,-200,left,-200,left,1,hole,right,x,True,0.355702877045
Hermine,24,weiblich,Gryffindor,das,Pulp Fiction,39,1,7,Feind,negative,200,right,Diskette,-200,left,200,right,0.04,hole,left,m,True,0.302553892136
Hermine,24,weiblich,Gryffindor,das,Pulp Fiction,39,1,8,Höflichkeit,positive,-200,right,Pass,200,right,200,right,1,hole,left,m,True,0.354201078415
Hermine,24,weiblich,Gryffindor,das,Pulp Fiction,39,1,9,Schleim,negative,200,right,Eile,-200,left,200,right,1,hole,right,m,True,0.323447942734
Hermine,24,weiblich,Gryffindor,das,Pulp Fiction,39,1,10,Kostbarkeit,positive,-200,right,Pullover,200,right,-200,left,0.04,hole,left,x,True,0.336845874786
Hermine,24,weiblich,Gryffindor,das,Pulp Fiction,39,1,11,Bewunderung,positive,200,right,März,-200,left,-200,left,1,hole,left,x,True,0.431056022644
Hermine,24,weiblich,Gryffindor,das,Pulp Fiction,39,1,12,Sturz,negative,-200,right,Bahnhof,200,right,200,right,0.04,hole,left,m,True,0.255360841751
Hermine,24,weiblich,Gryffindor,das,Pulp Fiction,39,1,13,Mord,negative,-200,right,Ausweis,200,right,200,right,0.04,hole,left,m,True,0.305814981461
Hermine,24,weiblich,Gryffindor,das,Pulp Fiction,39,1,14,Horror,negative,-200,right,Bluse,200,right,-200,left,1,hole,left,x,True,0.332520961761
Hermine,24,weiblich,Gryffindor,das,Pulp Fiction,39,1,15,Frohsinn,positive,-200,right,Drucker,200,right,-200,left,1,hole,left,x,True,0.392320871353
Hermine,24,weiblich,Gryffindor,das,Pulp Fiction,39,1,16,Geisel,negative,-200,right,Strumpf,200,right,-200,left,0.04,hole,right,x,True,0.326241970062
Hermine,24,weiblich,Gryffindor,das,Pulp Fiction,39,1,17,Sympathie,positive,200,right,Apotheke,-200,left,200,right,0.04,hole,left,m,True,0.28879904747
Hermine,24,weiblich,Gryffindor,das,Pulp Fiction,39,1,18,Qual,negative,-200,right,Juni,200,right,200,right,1,hole,left,m,True,0.3083319664
Hermine,24,weiblich,Gryffindor,das,Pulp Fiction,39,1,19,Gefängnis,negative,-200,right,Garten,200,right,-200,left,1,hole,left,x,True,0.342139005661
Hermine,24,weiblich,Gryffindor,das,Pulp Fiction,39,1,20,Hilfsbereitschaft,positive,200,right,Locher,-200,left,200,right,0.04,hole,right,m,True,0.303969860077
Hermine,24,weiblich,Gryffindor,das,Pulp Fiction,39,1,21,Ehrlichkeit,positive,200,right,Tag,-200,left,200,right,0.04,hole,right,m,True,0.317008972168
Hermine,24,weiblich,Gryffindor,das,Pulp Fiction,39,1,22,Krankheit,negative,200,right,Februar,-200,left,-200,left,0.04,hole,left,x,True,0.319514989853
Hermine,24,weiblich,Gryffindor,das,Pulp Fiction,39,1,23,Optimismus,positive,-200,right,Kugelschrieber,200,right,-200,left,1,hole,right,x,True,0.31879401207
Hermine,24,weiblich,Gryffindor,das,Pulp Fiction,39,1,24,Krieg,negative,-200,right,Einwohner,200,right,200,right,0.04,hole,right,m,True,0.27455997467
Hermine,24,weiblich,Gryffindor,das,Pulp Fiction,39,2,0,Freiheit,positive,200,right,Hut,-200,left,200,right,0.04,cross,None,m,True,0.323656082153
Hermine,24,weiblich,Gryffindor,das,Pulp Fiction,39,2,1,Schönheit,positive,-200,right,Dienstag,200,right,200,right,0.04,cross,None,m,True,0.355365037918
Hermine,24,weiblich,Gryffindor,das,Pulp Fiction,39,2,2,Sucht,negative,-200,right,Teppich,200,right,-200,left,1,cross,None,x,True,0.366112947464
Hermine,24,weiblich,Gryffindor,das,Pulp Fiction,39,2,3,Tod,negative,200,right,Brille,-200,left,200,right,1,cross,None,m,True,0.304020166397
Hermine,24,weiblich,Gryffindor,das,Pulp Fiction,39,2,4,Neid,negative,-200,right,Finger,200,right,200,right,1,cross,None,m,True,0.311819076538
Hermine,24,weiblich,Gryffindor,das,Pulp Fiction,39,2,5,Anschlag,negative,-200,right,Koch,200,right,-200,left,1,cross,None,x,True,0.289986133575
Hermine,24,weiblich,Gryffindor,das,Pulp Fiction,39,2,6,Unglück,negative,-200,right,Hafen,200,right,200,right,1,cross,None,m,True,0.268420934677
Hermine,24,weiblich,Gryffindor,das,Pulp Fiction,39,2,7,Liebe,positive,200,right,Schlüssel,-200,left,-200,left,0.04,cross,None,x,True,0.362131118774
Hermine,24,weiblich,Gryffindor,das,Pulp Fiction,39,2,8,Übelkeit,negative,-200,right,Septmeber,200,right,200,right,0.04,cross,None,m,True,0.292541027069
Hermine,24,weiblich,Gryffindor,das,Pulp Fiction,39,2,9,Gestank,negative,200,right,Apfelsine,-200,left,-200,left,1,cross,None,x,True,0.355318069458
Hermine,24,weiblich,Gryffindor,das,Pulp Fiction,39,2,10,Tapferkeit,positive,-200,right,Park,200,right,-200,left,1,cross,None,x,True,0.33108997345
Hermine,24,weiblich,Gryffindor,das,Pulp Fiction,39,2,11,Wunde,negative,200,right,Stuhl,-200,left,200,right,1,cross,None,m,True,0.297026872635
Hermine,24,weiblich,Gryffindor,das,Pulp Fiction,39,2,12,Pessimismus,negative,-200,right,Oktober,200,right,200,right,1,cross,None,m,True,0.29918384552
Hermine,24,weiblich,Gryffindor,das,Pulp Fiction,39,2,13,Unterstützung,positive,200,right,April,-200,left,200,right,0.04,cross,None,m,True,0.314639806747
Hermine,24,weiblich,Gryffindor,das,Pulp Fiction,39,2,14,Panik,negative,-200,right,Dose,200,right,200,right,0.04,cross,None,m,True,0.295727014542
Hermine,24,weiblich,Gryffindor,das,Pulp Fiction,39,2,15,Trennung,negative,200,right,Bus,-200,left,200,right,0.04,cross,None,m,True,0.287950992584
Hermine,24,weiblich,Gryffindor,das,Pulp Fiction,39,2,16,Gesundheit,positive,-200,right,Kellner,200,right,-200,left,1,cross,None,x,True,0.335406064987
Hermine,24,weiblich,Gryffindor,das,Pulp Fiction,39,2,17,Freundschaft,positive,-200,right,Tisch,200,right,-200,left,0.04,cross,None,m,False,0.25546503067
Hermine,24,weiblich,Gryffindor,das,Pulp Fiction,39,2,18,Bombe,negative,200,right,Anruf,-200,left,-200,left,1,cross,None,x,True,0.364389896393
Hermine,24,weiblich,Gryffindor,das,Pulp Fiction,39,2,19,Reichtum,positive,-200,right,Schrank,200,right,200,right,0.04,cross,None,m,True,0.292049884796
Hermine,24,weiblich,Gryffindor,das,Pulp Fiction,39,2,20,Lebensfreude,positive,200,right,Anzug,-200,left,-200,left,1,cross,None,x,True,0.32142996788
Hermine,24,weiblich,Gryffindor,das,Pulp Fiction,39,2,21,Geschenk,positive,-200,right,Dezember,200,right,200,right,0.04,cross,None,m,True,0.307276010513
Hermine,24,weiblich,Gryffindor,das,Pulp Fiction,39,2,22,Rache,negative,200,right,Schinken,-200,left,-200,left,1,cross,None,x,True,0.353990077972
Hermine,24,weiblich,Gryffindor,das,Pulp Fiction,39,2,23,Hässlichkeit,negative,-200,right,Fahrschein,200,right,-200,left,1,cross,None,x,True,0.293466091156
Hermine,24,weiblich,Gryffindor,das,Pulp Fiction,39,2,24,Sicherheit,positive,-200,right,Projektor,200,right,-200,left,1,cross,None,x,True,0.302263975143
Hermine,24,weiblich,Gryffindor,das,Pulp Fiction,39,3,0,Hass,negative,-200,right,Monitor,200,right,-200,left,0.04,hole,left,x,True,0.324416875839
Hermine,24,weiblich,Gryffindor,das,Pulp Fiction,39,3,1,Entspannung,positive,-200,right,Supermarkt,200,right,200,right,1,hole,left,m,True,0.310527086258
Hermine,24,weiblich,Gryffindor,das,Pulp Fiction,39,3,2,Heimweh,negative,-200,right,Rock,200,right,200,right,0.04,hole,left,m,True,0.326352119446
Hermine,24,weiblich,Gryffindor,das,Pulp Fiction,39,3,3,Solidarität,positive,-200,right,Fuß,200,right,-200,left,0.04,hole,right,x,True,0.343156099319
Hermine,24,weiblich,Gryffindor,das,Pulp Fiction,39,3,4,Wohlbefinden,positive,-200,right,Januar,200,right,-200,left,0.04,hole,right,x,True,0.316203117371
Hermine,24,weiblich,Gryffindor,das,Pulp Fiction,39,3,5,Zuverlässigkeit,positive,200,right,Decke,-200,left,200,right,1,hole,left,m,True,0.323208808899
Hermine,24,weiblich,Gryffindor,das,Pulp Fiction,39,3,6,Treue,positive,200,right,Dusche,-200,left,-200,left,1,hole,right,x,True,0.311324119568
Hermine,24,weiblich,Gryffindor,das,Pulp Fiction,39,3,7,Angst,negative,-200,right,Name,200,right,-200,left,0.04,hole,right,x,True,0.317772865295
Hermine,24,weiblich,Gryffindor,das,Pulp Fiction,39,3,8,Verletzung,negative,200,right,Mai,-200,left,-200,left,0.04,hole,left,x,True,0.327619791031
Hermine,24,weiblich,Gryffindor,das,Pulp Fiction,39,3,9,Gerechtigkeit,positive,-200,right,Berg,200,right,200,right,0.04,hole,left,m,True,0.296400785446
Hermine,24,weiblich,Gryffindor,das,Pulp Fiction,39,3,10,Schock,negative,-200,right,Zeiger,200,right,-200,left,1,hole,left,x,True,0.298023939133
Hermine,24,weiblich,Gryffindor,das,Pulp Fiction,39,3,11,Verehrung,positive,-200,right,Tee,200,right,-200,left,0.04,hole,right,x,True,0.36261510849
Hermine,24,weiblich,Gryffindor,das,Pulp Fiction,39,3,12,Schatz,positive,-200,right,Gast,200,right,-200,left,0.04,hole,left,x,True,0.419826984406
Hermine,24,weiblich,Gryffindor,das,Pulp Fiction,39,3,13,Vergnügen,positive,200,right,RadiergummI,-200,left,-200,left,0.04,hole,left,x,True,0.332376003265
Hermine,24,weiblich,Gryffindor,das,Pulp Fiction,39,3,14,Glück,positive,-200,right,Bankkarte,200,right,200,right,1,hole,left,m,True,0.328500032425
Hermine,24,weiblich,Gryffindor,das,Pulp Fiction,39,3,15,Beliebtheit,positive,200,right,Bank,-200,left,200,right,0.04,hole,left,m,True,0.309816122055
Hermine,24,weiblich,Gryffindor,das,Pulp Fiction,39,3,16,Trauer,negative,200,right,Laden,-200,left,200,right,1,hole,left,m,True,0.344503164291
Hermine,24,weiblich,Gryffindor,das,Pulp Fiction,39,3,17,Schmerz,negative,-200,right,Balkon,200,right,200,right,0.04,hole,right,m,True,0.320614099503
Hermine,24,weiblich,Gryffindor,das,Pulp Fiction,39,3,18,Armut,negative,-200,right,Baum,200,right,200,right,1,hole,right,m,True,0.316812038422
Hermine,24,weiblich,Gryffindor,das,Pulp Fiction,39,3,19,Ekel,negative,-200,right,Passant,200,right,200,right,1,hole,right,m,True,0.294947862625
Hermine,24,weiblich,Gryffindor,das,Pulp Fiction,39,3,20,Dummheit,negative,-200,right,Löffel,200,right,-200,left,1,hole,left,x,True,0.311570167542
Hermine,24,weiblich,Gryffindor,das,Pulp Fiction,39,3,21,Terror,negative,-200,right,Geburtstag,200,right,200,right,1,hole,left,m,True,0.309102058411
Hermine,24,weiblich,Gryffindor,das,Pulp Fiction,39,3,22,Einsamkeit,negative,-200,right,Adresse,200,right,200,right,0.04,hole,right,m,True,0.308929920197
Hermine,24,weiblich,Gryffindor,das,Pulp Fiction,39,3,23,Schrott,negative,-200,right,Zug,200,right,-200,left,0.04,hole,right,x,True,0.276731014252
Hermine,24,weiblich,Gryffindor,das,Pulp Fiction,39,3,24,Koma,negative,200,right,Bestellung,-200,left,-200,left,1,hole,left,x,True,0.345610141754
