subject,age,sex,house,nutella,movie,temperature,block,trial,cue_cond,cue_valence,cue_cond_pos,cue_cond_side,cue_neutral,cue_neutral_pos,cue_neutral_side,target_pos,target_side,duration,fixation,fixation_direction,response,correct,rt
JKR,30,weiblich,Hufflepuff,die,Der Pate,41,0,0,Unglück,negative,200,right,Schinken,-200,left,-200,left,1,cross,None,x,True,0.411761266179
JKR,30,weiblich,Hufflepuff,die,Der Pate,41,0,1,Wunde,negative,-200,right,November,200,right,200,right,1,cross,None,m,True,0.293208606541
JKR,30,weiblich,Hufflepuff,die,Der Pate,41,0,2,Bereicherung,positive,200,right,Park,-200,left,-200,left,1,cross,None,x,True,0.326272991486
JKR,30,weiblich,Hufflepuff,die,Der Pate,41,0,3,Krieg,negative,200,right,Hafen,-200,left,-200,left,0.04,cross,None,x,True,0.367848351598
JKR,30,weiblich,Hufflepuff,die,Der Pate,41,0,4,Lachen,positive,-200,right,Balkon,200,right,200,right,1,cross,None,m,True,0.355563546531
JKR,30,weiblich,Hufflepuff,die,Der Pate,41,0,5,Gesundheit,positive,200,right,Fernseher,-200,left,-200,left,0.04,cross,None,x,True,0.310983661562
JKR,30,weiblich,Hufflepuff,die,Der Pate,41,0,6,Geschenk,positive,200,right,Finger,-200,left,200,right,0.04,cross,None,m,True,0.499254005961
JKR,30,weiblich,Hufflepuff,die,Der Pate,41,0,7,Harmonie,positive,200,right,Kaffee,-200,left,-200,left,0.04,cross,None,x,True,0.333060038276
JKR,30,weiblich,Hufflepuff,die,Der Pate,41,0,8,Dummheit,negative,-200,right,Hut,200,right,-200,left,0.04,cross,None,x,True,0.364011695608
JKR,30,weiblich,Hufflepuff,die,Der Pate,41,0,9,Lebensfreude,positive,-200,right,Zuschauer,200,right,200,right,0.04,cross,None,m,True,0.35832941439
JKR,30,weiblich,Hufflepuff,die,Der Pate,41,0,10,Genuss,positive,-200,right,Gast,200,right,200,right,1,cross,None,m,True,0.349013177678
JKR,30,weiblich,Hufflepuff,die,Der Pate,41,0,11,Horror,negative,-200,right,Füller,200,right,-200,left,0.04,cross,None,x,True,0.350901870988
JKR,30,weiblich,Hufflepuff,die,Der Pate,41,0,12,Gefängnis,negative,200,right,Dienstag,-200,left,-200,left,1,cross,None,x,True,0.314968093298
JKR,30,weiblich,Hufflepuff,die,Der Pate,41,0,13,Qual,negative,200,right,Flur,-200,left,200,right,1,cross,None,m,True,0.378139755689
JKR,30,weiblich,Hufflepuff,die,Der Pate,41,0,14,Wohlbefinden,positive,200,right,Brille,-200,left,-200,left,0.04,cross,None,x,True,0.367490368895
JKR,30,weiblich,Hufflepuff,die,Der Pate,41,0,15,Entspannung,positive,-200,right,Wagen,200,right,200,right,1,cross,None,m,True,0.358599284664
JKR,30,weiblich,Hufflepuff,die,Der Pate,41,0,16,Reichtum,positive,200,right,Anzug,-200,left,200,right,0.04,cross,None,m,True,0.577181579545
JKR,30,weiblich,Hufflepuff,die,Der Pate,41,0,17,Panik,negative,200,right,Garten,-200,left,200,right,1,cross,None,m,True,0.325918169692
JKR,30,weiblich,Hufflepuff,die,Der Pate,41,0,18,Übelkeit,negative,-200,right,Fußboden,200,right,-200,left,1,cross,None,m,False,0.329764703289
JKR,30,weiblich,Hufflepuff,die,Der Pate,41,0,19,Wohlstand,positive,-200,right,Fahrschein,200,right,-200,left,1,cross,None,x,True,0.576222613454
JKR,30,weiblich,Hufflepuff,die,Der Pate,41,0,20,Wut,negative,-200,right,Locher,200,right,-200,left,1,cross,None,x,True,0.445781061426
JKR,30,weiblich,Hufflepuff,die,Der Pate,41,0,21,Ehrlichkeit,positive,200,right,Projektor,-200,left,200,right,0.04,cross,None,x,False,0.465589426458
JKR,30,weiblich,Hufflepuff,die,Der Pate,41,0,22,Angst,negative,-200,right,Stuhl,200,right,-200,left,1,cross,None,x,True,0.452326687984
JKR,30,weiblich,Hufflepuff,die,Der Pate,41,0,23,Frohsinn,positive,200,right,Dezember,-200,left,200,right,1,cross,None,m,True,0.452998399734
JKR,30,weiblich,Hufflepuff,die,Der Pate,41,0,24,Verzweiflung,negative,200,right,Löffel,-200,left,200,right,1,cross,None,m,True,0.348175118677
JKR,30,weiblich,Hufflepuff,die,Der Pate,41,1,0,Koma,negative,200,right,Drucker,-200,left,-200,left,1,hole,left,x,True,0.34448386915
JKR,30,weiblich,Hufflepuff,die,Der Pate,41,1,1,Attraktivität,positive,-200,right,Bibliothek,200,right,200,right,0.04,hole,right,m,True,0.55369065702
JKR,30,weiblich,Hufflepuff,die,Der Pate,41,1,2,Verletzung,negative,-200,right,Kunde,200,right,200,right,0.04,hole,right,m,True,0.416555702686
JKR,30,weiblich,Hufflepuff,die,Der Pate,41,1,3,Neid,negative,-200,right,Bestellung,200,right,200,right,1,hole,left,m,True,0.350465258583
JKR,30,weiblich,Hufflepuff,die,Der Pate,41,1,4,Unterstützung,positive,200,right,Kleiderhaken,-200,left,-200,left,0.04,hole,left,x,True,0.446806013584
JKR,30,weiblich,Hufflepuff,die,Der Pate,41,1,5,Optimismus,positive,-200,right,Bank,200,right,-200,left,0.04,hole,right,x,True,0.348559575155
JKR,30,weiblich,Hufflepuff,die,Der Pate,41,1,6,Vergnügen,positive,200,right,Oktober,-200,left,200,right,0.04,hole,left,m,True,0.411064662039
JKR,30,weiblich,Hufflepuff,die,Der Pate,41,1,7,Hässlichkeit,negative,-200,right,Septmeber,200,right,200,right,1,hole,left,m,True,0.324724894948
JKR,30,weiblich,Hufflepuff,die,Der Pate,41,1,8,Pessimismus,negative,-200,right,Eile,200,right,200,right,0.04,hole,left,m,True,0.849565560929
JKR,30,weiblich,Hufflepuff,die,Der Pate,41,1,9,Folter,negative,200,right,Flughafen,-200,left,-200,left,1,hole,right,x,True,0.333827765658
JKR,30,weiblich,Hufflepuff,die,Der Pate,41,1,10,Kraft,positive,200,right,Rock,-200,left,-200,left,1,hole,right,x,True,0.331368908286
JKR,30,weiblich,Hufflepuff,die,Der Pate,41,1,11,Sturz,negative,-200,right,Bluse,200,right,200,right,1,hole,left,m,True,0.301202758215
JKR,30,weiblich,Hufflepuff,die,Der Pate,41,1,12,Trennung,negative,-200,right,Apfel,200,right,-200,left,0.04,hole,left,x,True,0.388922694139
JKR,30,weiblich,Hufflepuff,die,Der Pate,41,1,13,Gestank,negative,200,right,Computer,-200,left,200,right,1,hole,left,m,True,0.396200880408
JKR,30,weiblich,Hufflepuff,die,Der Pate,41,1,14,Ekel,negative,-200,right,Zeiger,200,right,200,right,0.04,hole,left,m,True,0.356620897539
JKR,30,weiblich,Hufflepuff,die,Der Pate,41,1,15,Sucht,negative,-200,right,Monitor,200,right,200,right,0.04,hole,left,m,True,0.37416203972
JKR,30,weiblich,Hufflepuff,die,Der Pate,41,1,16,Gerechtigkeit,positive,200,right,Decke,-200,left,200,right,0.04,hole,right,m,True,0.401535057463
JKR,30,weiblich,Hufflepuff,die,Der Pate,41,1,17,Anschlag,negative,200,right,Bahnhof,-200,left,200,right,1,hole,left,m,True,0.375834205188
JKR,30,weiblich,Hufflepuff,die,Der Pate,41,1,18,Herzlichkeit,positive,-200,right,Mai,200,right,200,right,0.04,hole,left,m,True,0.509619298391
JKR,30,weiblich,Hufflepuff,die,Der Pate,41,1,19,Tod,negative,-200,right,Markt,200,right,-200,left,0.04,hole,right,x,True,0.385572436266
JKR,30,weiblich,Hufflepuff,die,Der Pate,41,1,20,Sicherheit,positive,-200,right,Apfelsine,200,right,200,right,0.04,hole,right,m,True,0.393312918022
JKR,30,weiblich,Hufflepuff,die,Der Pate,41,1,21,Mord,negative,-200,right,Anruf,200,right,-200,left,0.04,hole,left,x,True,0.322132880799
JKR,30,weiblich,Hufflepuff,die,Der Pate,41,1,22,Belohnung,positive,200,right,Sessel,-200,left,200,right,1,hole,right,m,True,0.29484916199
JKR,30,weiblich,Hufflepuff,die,Der Pate,41,1,23,Freundschaft,positive,-200,right,Platz,200,right,-200,left,1,hole,right,x,True,0.354420846328
JKR,30,weiblich,Hufflepuff,die,Der Pate,41,1,24,Depression,negative,200,right,Apotheke,-200,left,200,right,0.04,hole,left,m,True,0.35819112137
JKR,30,weiblich,Hufflepuff,die,Der Pate,41,2,0,Schock,negative,200,right,Wind,-200,left,200,right,1,cross,None,m,True,0.348174327984
JKR,30,weiblich,Hufflepuff,die,Der Pate,41,2,1,Bombe,negative,200,right,März,-200,left,200,right,1,cross,None,m,True,0.322818419896
JKR,30,weiblich,Hufflepuff,die,Der Pate,41,2,2,Müll,negative,200,right,Supermarkt,-200,left,-200,left,1,cross,None,x,True,0.368929015473
JKR,30,weiblich,Hufflepuff,die,Der Pate,41,2,3,Regen,negative,200,right,Marktplatz,-200,left,200,right,1,cross,None,m,True,0.359454333782
JKR,30,weiblich,Hufflepuff,die,Der Pate,41,2,4,Bewunderung,positive,-200,right,Kakao,200,right,-200,left,0.04,cross,None,x,True,0.517683781683
JKR,30,weiblich,Hufflepuff,die,Der Pate,41,2,5,Schleim,negative,-200,right,Strumpf,200,right,-200,left,0.04,cross,None,x,True,0.417565640062
JKR,30,weiblich,Hufflepuff,die,Der Pate,41,2,6,Totschlag,negative,-200,right,Zucker,200,right,-200,left,1,cross,None,x,True,0.314209455624
JKR,30,weiblich,Hufflepuff,die,Der Pate,41,2,7,Armut,negative,200,right,Name,-200,left,200,right,0.04,cross,None,m,True,0.434260426089
JKR,30,weiblich,Hufflepuff,die,Der Pate,41,2,8,Eleganz,positive,200,right,Bus,-200,left,200,right,0.04,cross,None,m,True,0.457679435611
JKR,30,weiblich,Hufflepuff,die,Der Pate,41,2,9,Anerkennung,positive,-200,right,Herr,200,right,200,right,1,cross,None,m,True,0.332670841366
JKR,30,weiblich,Hufflepuff,die,Der Pate,41,2,10,Unfall,negative,-200,right,Cola,200,right,200,right,1,cross,None,m,True,0.378398166038
JKR,30,weiblich,Hufflepuff,die,Der Pate,41,2,11,Krankheit,negative,200,right,Schlüssel,-200,left,-200,left,0.04,cross,None,x,True,0.375150245614
JKR,30,weiblich,Hufflepuff,die,Der Pate,41,2,12,Mut,positive,-200,right,Baum,200,right,-200,left,0.04,cross,None,x,True,0.339305371046
JKR,30,weiblich,Hufflepuff,die,Der Pate,41,2,13,Tapferkeit,positive,200,right,Diskette,-200,left,-200,left,1,cross,None,x,True,0.328773731366
JKR,30,weiblich,Hufflepuff,die,Der Pate,41,2,14,Rücksichtnahme,positive,200,right,Zug,-200,left,200,right,1,cross,None,m,True,0.314519627951
JKR,30,weiblich,Hufflepuff,die,Der Pate,41,2,15,Hass,negative,200,right,Laden,-200,left,200,right,1,cross,None,m,True,0.372127151117
JKR,30,weiblich,Hufflepuff,die,Der Pate,41,2,16,Sympathie,positive,-200,right,Tisch,200,right,200,right,1,cross,None,m,True,0.402227710001
JKR,30,weiblich,Hufflepuff,die,Der Pate,41,2,17,Treue,positive,-200,right,Dose,200,right,200,right,1,cross,None,m,True,0.472693759017
JKR,30,weiblich,Hufflepuff,die,Der Pate,41,2,18,Hilfsbereitschaft,positive,-200,right,August,200,right,200,right,1,cross,None,m,True,0.441330778413
JKR,30,weiblich,Hufflepuff,die,Der Pate,41,2,19,Einsamkeit,negative,200,right,Bedienung,-200,left,-200,left,1,cross,None,x,True,0.318537645042
JKR,30,weiblich,Hufflepuff,die,Der Pate,41,2,20,Kostbarkeit,positive,-200,right,Kugelschrieber,200,right,200,right,1,cross,None,m,True,0.554362763651
JKR,30,weiblich,Hufflepuff,die,Der Pate,41,2,21,Zufriedenheit,positive,200,right,Juni,-200,left,200,right,1,cross,None,m,True,0.625743525103
JKR,30,weiblich,Hufflepuff,die,Der Pate,41,2,22,Rache,negative,-200,right,Berg,200,right,200,right,1,cross,None,m,True,0.415015903302
JKR,30,weiblich,Hufflepuff,die,Der Pate,41,2,23,Liebe,positive,-200,right,Tee,200,right,-200,left,0.04,cross,None,x,True,0.427658297122
JKR,30,weiblich,Hufflepuff,die,Der Pate,41,2,24,Droge,negative,200,right,Beschreibung,-200,left,200,right,1,cross,None,m,True,0.325345635414
JKR,30,weiblich,Hufflepuff,die,Der Pate,41,3,0,Leid,negative,-200,right,Tag,200,right,-200,left,1,hole,left,x,True,0.321099235676
JKR,30,weiblich,Hufflepuff,die,Der Pate,41,3,1,Glück,positive,200,right,Eintrittskarte,-200,left,-200,left,0.04,hole,right,x,True,0.437638342381
JKR,30,weiblich,Hufflepuff,die,Der Pate,41,3,2,Geisel,negative,200,right,Schrank,-200,left,-200,left,0.04,hole,right,x,True,0.426815496758
JKR,30,weiblich,Hufflepuff,die,Der Pate,41,3,3,Beliebtheit,positive,-200,right,Bildschirm,200,right,200,right,1,hole,right,m,True,0.312788983807
JKR,30,weiblich,Hufflepuff,die,Der Pate,41,3,4,Verehrung,positive,200,right,Dusche,-200,left,200,right,1,hole,left,m,True,0.334783965722
JKR,30,weiblich,Hufflepuff,die,Der Pate,41,3,5,Dankbarkeit,positive,-200,right,RadiergummI,200,right,200,right,0.04,hole,left,m,True,0.421457612887
JKR,30,weiblich,Hufflepuff,die,Der Pate,41,3,6,Schönheit,positive,-200,right,Bankkarte,200,right,-200,left,1,hole,left,x,True,0.377377165481
JKR,30,weiblich,Hufflepuff,die,Der Pate,41,3,7,Schrott,negative,200,right,Geburtstag,-200,left,200,right,1,hole,right,m,True,0.268377422355
JKR,30,weiblich,Hufflepuff,die,Der Pate,41,3,8,Terror,negative,200,right,April,-200,left,200,right,1,hole,right,m,True,0.270910958759
JKR,30,weiblich,Hufflepuff,die,Der Pate,41,3,9,Erfolg,positive,200,right,Ausweis,-200,left,200,right,1,hole,right,m,True,0.287894580513
JKR,30,weiblich,Hufflepuff,die,Der Pate,41,3,10,Leidenschaft,positive,200,right,Februar,-200,left,200,right,1,hole,left,m,True,0.333591481671
JKR,30,weiblich,Hufflepuff,die,Der Pate,41,3,11,Waffe,negative,200,right,Adresse,-200,left,200,right,1,hole,right,m,True,0.322021850385
JKR,30,weiblich,Hufflepuff,die,Der Pate,41,3,12,Feind,negative,-200,right,Passant,200,right,-200,left,0.04,hole,right,x,True,0.342947626486
JKR,30,weiblich,Hufflepuff,die,Der Pate,41,3,13,Heimweh,negative,-200,right,Brücke,200,right,200,right,1,hole,left,m,True,0.308735405095
JKR,30,weiblich,Hufflepuff,die,Der Pate,41,3,14,Trauer,negative,200,right,Januar,-200,left,-200,left,0.04,hole,right,x,True,0.39471560996
JKR,30,weiblich,Hufflepuff,die,Der Pate,41,3,15,Schrei,negative,-200,right,Pullover,200,right,-200,left,0.04,hole,left,x,True,0.46675346233
JKR,30,weiblich,Hufflepuff,die,Der Pate,41,3,16,Schmerz,negative,-200,right,Koch,200,right,200,right,1,hole,right,m,True,0.27494636178
JKR,30,weiblich,Hufflepuff,die,Der Pate,41,3,17,Schatz,positive,-200,right,Keller,200,right,-200,left,0.04,hole,right,x,True,0.328230041079
JKR,30,weiblich,Hufflepuff,die,Der Pate,41,3,18,Zuverlässigkeit,positive,200,right,Dolmetscherin,-200,left,200,right,0.04,hole,right,m,True,0.391956852749
JKR,30,weiblich,Hufflepuff,die,Der Pate,41,3,19,Solidarität,positive,-200,right,Fuß,200,right,-200,left,0.04,hole,right,x,True,0.353297113441
JKR,30,weiblich,Hufflepuff,die,Der Pate,41,3,20,Frieden,positive,200,right,Juli,-200,left,200,right,0.04,hole,right,m,True,0.365626173094
JKR,30,weiblich,Hufflepuff,die,Der Pate,41,3,21,Spaß,positive,-200,right,Teppich,200,right,-200,left,0.04,hole,right,x,True,0.324635596015
JKR,30,weiblich,Hufflepuff,die,Der Pate,41,3,22,Höflichkeit,positive,-200,right,Einwohner,200,right,-200,left,0.04,hole,right,x,True,0.318797241896
JKR,30,weiblich,Hufflepuff,die,Der Pate,41,3,23,Stärke,positive,-200,right,Pass,200,right,-200,left,1,hole,left,x,True,0.355904143304
JKR,30,weiblich,Hufflepuff,die,Der Pate,41,3,24,Freiheit,positive,200,right,Kellner,-200,left,-200,left,0.04,hole,left,x,True,0.368564316072
