subject,age,sex,house,nutella,movie,temperature,block,trial,cue_cond,cue_valence,cue_cond_pos,cue_cond_side,cue_neutral,cue_neutral_pos,cue_neutral_side,target_pos,target_side,duration,fixation,fixation_direction,response,correct,rt
JM,31,weiblich,Gryffindor,das,Pulp Fiction,41,0,0,Hass,negative,200,right,Platz,-200,left,200,right,1,cross,None,m,True,0.312649965286
JM,31,weiblich,Gryffindor,das,Pulp Fiction,41,0,1,Bombe,negative,200,right,Laden,-200,left,-200,left,0.04,cross,None,x,True,0.351950883865
JM,31,weiblich,Gryffindor,das,Pulp Fiction,41,0,2,Treue,positive,200,right,Dezember,-200,left,200,right,1,cross,None,m,True,0.289345026016
JM,31,weiblich,Gryffindor,das,Pulp Fiction,41,0,3,Rücksichtnahme,positive,-200,right,Eile,200,right,200,right,0.04,cross,None,m,True,0.287852048874
JM,31,weiblich,Gryffindor,das,Pulp Fiction,41,0,4,Zufriedenheit,positive,200,right,Pass,-200,left,200,right,1,cross,None,m,True,0.31719493866
JM,31,weiblich,Gryffindor,das,Pulp Fiction,41,0,5,Attraktivität,positive,200,right,Kleiderhaken,-200,left,200,right,0.04,cross,None,m,True,0.295917034149
JM,31,weiblich,Gryffindor,das,Pulp Fiction,41,0,6,Frieden,positive,-200,right,Flughafen,200,right,-200,left,0.04,cross,None,x,True,0.316998004913
JM,31,weiblich,Gryffindor,das,Pulp Fiction,41,0,7,Reichtum,positive,200,right,Bus,-200,left,-200,left,0.04,cross,None,m,False,0.234754085541
JM,31,weiblich,Gryffindor,das,Pulp Fiction,41,0,8,Terror,negative,200,right,Strumpf,-200,left,-200,left,0.04,cross,None,x,True,0.355870962143
JM,31,weiblich,Gryffindor,das,Pulp Fiction,41,0,9,Hässlichkeit,negative,-200,right,Bankkarte,200,right,200,right,1,cross,None,m,True,0.278529882431
JM,31,weiblich,Gryffindor,das,Pulp Fiction,41,0,10,Liebe,positive,200,right,Bedienung,-200,left,-200,left,0.04,cross,None,m,False,0.300354957581
JM,31,weiblich,Gryffindor,das,Pulp Fiction,41,0,11,Übelkeit,negative,200,right,Keller,-200,left,-200,left,1,cross,None,x,True,0.330320119858
JM,31,weiblich,Gryffindor,das,Pulp Fiction,41,0,12,Freundschaft,positive,-200,right,Gast,200,right,200,right,0.04,cross,None,m,True,0.366672992706
JM,31,weiblich,Gryffindor,das,Pulp Fiction,41,0,13,Spaß,positive,-200,right,Kunde,200,right,-200,left,0.04,cross,None,x,True,0.325417041779
JM,31,weiblich,Gryffindor,das,Pulp Fiction,41,0,14,Hilfsbereitschaft,positive,-200,right,Baum,200,right,200,right,0.04,cross,None,m,True,0.299299001694
JM,31,weiblich,Gryffindor,das,Pulp Fiction,41,0,15,Lebensfreude,positive,-200,right,Tee,200,right,200,right,1,cross,None,m,True,0.318042039871
JM,31,weiblich,Gryffindor,das,Pulp Fiction,41,0,16,Folter,negative,200,right,Mai,-200,left,200,right,1,cross,None,m,True,0.313040971756
JM,31,weiblich,Gryffindor,das,Pulp Fiction,41,0,17,Bewunderung,positive,200,right,Bahnhof,-200,left,-200,left,1,cross,None,x,True,0.37010717392
JM,31,weiblich,Gryffindor,das,Pulp Fiction,41,0,18,Waffe,negative,200,right,Dose,-200,left,200,right,0.04,cross,None,m,True,0.330958127975
JM,31,weiblich,Gryffindor,das,Pulp Fiction,41,0,19,Schleim,negative,200,right,Bestellung,-200,left,200,right,1,cross,None,m,True,0.303200960159
JM,31,weiblich,Gryffindor,das,Pulp Fiction,41,0,20,Mord,negative,-200,right,Fernseher,200,right,-200,left,1,cross,None,x,True,0.361473798752
JM,31,weiblich,Gryffindor,das,Pulp Fiction,41,0,21,Erfolg,positive,200,right,Apotheke,-200,left,-200,left,0.04,cross,None,x,True,0.488139867783
JM,31,weiblich,Gryffindor,das,Pulp Fiction,41,0,22,Freiheit,positive,-200,right,Monitor,200,right,200,right,1,cross,None,m,True,0.297627210617
JM,31,weiblich,Gryffindor,das,Pulp Fiction,41,0,23,Neid,negative,-200,right,Fußboden,200,right,-200,left,0.04,cross,None,x,True,0.32915687561
JM,31,weiblich,Gryffindor,das,Pulp Fiction,41,0,24,Zuverlässigkeit,positive,-200,right,Decke,200,right,-200,left,1,cross,None,x,True,0.347948074341
JM,31,weiblich,Gryffindor,das,Pulp Fiction,41,1,0,Sucht,negative,-200,right,Bibliothek,200,right,200,right,0.04,hole,right,m,True,0.312805891037
JM,31,weiblich,Gryffindor,das,Pulp Fiction,41,1,1,Dankbarkeit,positive,-200,right,Bildschirm,200,right,200,right,0.04,hole,left,m,True,0.285879135132
JM,31,weiblich,Gryffindor,das,Pulp Fiction,41,1,2,Rache,negative,200,right,April,-200,left,200,right,1,hole,right,m,True,0.324376821518
JM,31,weiblich,Gryffindor,das,Pulp Fiction,41,1,3,Müll,negative,200,right,Zug,-200,left,-200,left,1,hole,right,x,True,0.421005010605
JM,31,weiblich,Gryffindor,das,Pulp Fiction,41,1,4,Kostbarkeit,positive,-200,right,Marktplatz,200,right,-200,left,0.04,hole,right,x,True,0.348801136017
JM,31,weiblich,Gryffindor,das,Pulp Fiction,41,1,5,Sicherheit,positive,200,right,Hafen,-200,left,-200,left,1,hole,right,x,True,0.349629878998
JM,31,weiblich,Gryffindor,das,Pulp Fiction,41,1,6,Qual,negative,-200,right,Apfel,200,right,-200,left,1,hole,right,x,True,0.388268947601
JM,31,weiblich,Gryffindor,das,Pulp Fiction,41,1,7,Totschlag,negative,-200,right,Oktober,200,right,200,right,0.04,hole,right,m,True,0.388640165329
JM,31,weiblich,Gryffindor,das,Pulp Fiction,41,1,8,Schönheit,positive,-200,right,Koch,200,right,-200,left,1,hole,left,x,True,0.29795217514
JM,31,weiblich,Gryffindor,das,Pulp Fiction,41,1,9,Schrott,negative,-200,right,Füller,200,right,-200,left,0.04,hole,left,x,True,0.3563580513
JM,31,weiblich,Gryffindor,das,Pulp Fiction,41,1,10,Geisel,negative,-200,right,Beschreibung,200,right,200,right,0.04,hole,right,m,True,0.339924097061
JM,31,weiblich,Gryffindor,das,Pulp Fiction,41,1,11,Trauer,negative,-200,right,Adresse,200,right,200,right,0.04,hole,right,m,True,0.330911874771
JM,31,weiblich,Gryffindor,das,Pulp Fiction,41,1,12,Vergnügen,positive,200,right,Wagen,-200,left,200,right,0.04,hole,left,m,True,0.339205980301
JM,31,weiblich,Gryffindor,das,Pulp Fiction,41,1,13,Beliebtheit,positive,-200,right,Schlüssel,200,right,200,right,0.04,hole,right,m,True,0.311473846436
JM,31,weiblich,Gryffindor,das,Pulp Fiction,41,1,14,Unterstützung,positive,200,right,Zeiger,-200,left,200,right,0.04,hole,left,m,True,0.352266073227
JM,31,weiblich,Gryffindor,das,Pulp Fiction,41,1,15,Depression,negative,200,right,Juli,-200,left,-200,left,1,hole,left,x,True,0.308002948761
JM,31,weiblich,Gryffindor,das,Pulp Fiction,41,1,16,Leidenschaft,positive,200,right,RadiergummI,-200,left,200,right,0.04,hole,right,m,True,0.305541992188
JM,31,weiblich,Gryffindor,das,Pulp Fiction,41,1,17,Lachen,positive,-200,right,Sessel,200,right,200,right,0.04,hole,right,m,True,0.281903982162
JM,31,weiblich,Gryffindor,das,Pulp Fiction,41,1,18,Eleganz,positive,-200,right,Finger,200,right,200,right,1,hole,right,m,True,0.31129693985
JM,31,weiblich,Gryffindor,das,Pulp Fiction,41,1,19,Schatz,positive,200,right,Ausweis,-200,left,-200,left,0.04,hole,right,x,True,0.328871011734
JM,31,weiblich,Gryffindor,das,Pulp Fiction,41,1,20,Gesundheit,positive,200,right,Teppich,-200,left,-200,left,1,hole,left,x,True,0.417371988297
JM,31,weiblich,Gryffindor,das,Pulp Fiction,41,1,21,Mut,positive,-200,right,Januar,200,right,-200,left,0.04,hole,left,x,True,0.468112945557
JM,31,weiblich,Gryffindor,das,Pulp Fiction,41,1,22,Heimweh,negative,-200,right,Hut,200,right,200,right,1,hole,right,m,True,0.333193063736
JM,31,weiblich,Gryffindor,das,Pulp Fiction,41,1,23,Sympathie,positive,-200,right,Kaffee,200,right,-200,left,1,hole,right,x,True,0.338454008102
JM,31,weiblich,Gryffindor,das,Pulp Fiction,41,1,24,Anschlag,negative,200,right,Septmeber,-200,left,-200,left,0.04,hole,right,x,True,0.356775045395
JM,31,weiblich,Gryffindor,das,Pulp Fiction,41,2,0,Wohlstand,positive,200,right,März,-200,left,-200,left,0.04,cross,None,x,True,0.3526699543
JM,31,weiblich,Gryffindor,das,Pulp Fiction,41,2,1,Harmonie,positive,-200,right,Passant,200,right,-200,left,0.04,cross,None,x,True,0.356019020081
JM,31,weiblich,Gryffindor,das,Pulp Fiction,41,2,2,Trennung,negative,200,right,Kellner,-200,left,-200,left,1,cross,None,x,True,0.353470087051
JM,31,weiblich,Gryffindor,das,Pulp Fiction,41,2,3,Genuss,positive,-200,right,Einwohner,200,right,200,right,0.04,cross,None,m,True,0.304284095764
JM,31,weiblich,Gryffindor,das,Pulp Fiction,41,2,4,Regen,negative,-200,right,Kakao,200,right,-200,left,1,cross,None,x,True,0.34020614624
JM,31,weiblich,Gryffindor,das,Pulp Fiction,41,2,5,Belohnung,positive,-200,right,August,200,right,-200,left,1,cross,None,x,True,0.336529970169
JM,31,weiblich,Gryffindor,das,Pulp Fiction,41,2,6,Sturz,negative,-200,right,Drucker,200,right,200,right,0.04,cross,None,m,True,0.336548089981
JM,31,weiblich,Gryffindor,das,Pulp Fiction,41,2,7,Tod,negative,200,right,Bank,-200,left,200,right,0.04,cross,None,m,True,0.285710096359
JM,31,weiblich,Gryffindor,das,Pulp Fiction,41,2,8,Armut,negative,-200,right,Markt,200,right,-200,left,0.04,cross,None,x,True,0.303066968918
JM,31,weiblich,Gryffindor,das,Pulp Fiction,41,2,9,Gefängnis,negative,200,right,Rock,-200,left,200,right,0.04,cross,None,m,True,0.294477939606
JM,31,weiblich,Gryffindor,das,Pulp Fiction,41,2,10,Pessimismus,negative,200,right,Tisch,-200,left,-200,left,0.04,cross,None,x,True,0.364972829819
JM,31,weiblich,Gryffindor,das,Pulp Fiction,41,2,11,Schrei,negative,-200,right,Löffel,200,right,-200,left,0.04,cross,None,x,True,0.377815961838
JM,31,weiblich,Gryffindor,das,Pulp Fiction,41,2,12,Solidarität,positive,-200,right,Berg,200,right,-200,left,0.04,cross,None,x,True,0.325464010239
JM,31,weiblich,Gryffindor,das,Pulp Fiction,41,2,13,Tapferkeit,positive,-200,right,Brücke,200,right,200,right,0.04,cross,None,m,True,0.304794073105
JM,31,weiblich,Gryffindor,das,Pulp Fiction,41,2,14,Unfall,negative,-200,right,Schinken,200,right,200,right,0.04,cross,None,m,True,0.352401018143
JM,31,weiblich,Gryffindor,das,Pulp Fiction,41,2,15,Entspannung,positive,200,right,Supermarkt,-200,left,-200,left,1,cross,None,x,True,0.356437921524
JM,31,weiblich,Gryffindor,das,Pulp Fiction,41,2,16,Gestank,negative,-200,right,Dolmetscherin,200,right,-200,left,1,cross,None,x,True,0.355878829956
JM,31,weiblich,Gryffindor,das,Pulp Fiction,41,2,17,Krankheit,negative,-200,right,Februar,200,right,200,right,1,cross,None,m,True,0.329327821732
JM,31,weiblich,Gryffindor,das,Pulp Fiction,41,2,18,Einsamkeit,negative,200,right,Kugelschrieber,-200,left,200,right,0.04,cross,None,m,True,0.30672121048
JM,31,weiblich,Gryffindor,das,Pulp Fiction,41,2,19,Koma,negative,200,right,Garten,-200,left,-200,left,1,cross,None,x,True,0.469512939453
JM,31,weiblich,Gryffindor,das,Pulp Fiction,41,2,20,Ekel,negative,200,right,Tag,-200,left,200,right,0.04,cross,None,m,True,0.288125991821
JM,31,weiblich,Gryffindor,das,Pulp Fiction,41,2,21,Verzweiflung,negative,-200,right,Zucker,200,right,200,right,0.04,cross,None,m,True,0.297878026962
JM,31,weiblich,Gryffindor,das,Pulp Fiction,41,2,22,Höflichkeit,positive,-200,right,Anzug,200,right,200,right,1,cross,None,m,True,0.300076007843
JM,31,weiblich,Gryffindor,das,Pulp Fiction,41,2,23,Frohsinn,positive,-200,right,Balkon,200,right,-200,left,1,cross,None,x,True,0.328836917877
JM,31,weiblich,Gryffindor,das,Pulp Fiction,41,2,24,Gerechtigkeit,positive,200,right,Locher,-200,left,200,right,0.04,cross,None,m,True,0.304949998856
JM,31,weiblich,Gryffindor,das,Pulp Fiction,41,3,0,Ehrlichkeit,positive,200,right,Computer,-200,left,200,right,0.04,hole,left,m,True,0.322266101837
JM,31,weiblich,Gryffindor,das,Pulp Fiction,41,3,1,Dummheit,negative,200,right,Park,-200,left,-200,left,1,hole,left,x,True,0.248632907867
JM,31,weiblich,Gryffindor,das,Pulp Fiction,41,3,2,Droge,negative,-200,right,Fuß,200,right,-200,left,0.04,hole,left,x,True,0.36084985733
JM,31,weiblich,Gryffindor,das,Pulp Fiction,41,3,3,Wohlbefinden,positive,200,right,Anruf,-200,left,-200,left,1,hole,left,x,True,0.28649687767
JM,31,weiblich,Gryffindor,das,Pulp Fiction,41,3,4,Kraft,positive,-200,right,Dusche,200,right,-200,left,1,hole,right,x,True,0.356056213379
JM,31,weiblich,Gryffindor,das,Pulp Fiction,41,3,5,Panik,negative,-200,right,Juni,200,right,-200,left,0.04,hole,right,x,True,0.344971895218
JM,31,weiblich,Gryffindor,das,Pulp Fiction,41,3,6,Feind,negative,-200,right,Flur,200,right,-200,left,0.04,hole,left,x,True,0.318199872971
JM,31,weiblich,Gryffindor,das,Pulp Fiction,41,3,7,Bereicherung,positive,200,right,Geburtstag,-200,left,-200,left,1,hole,left,x,True,0.543016195297
JM,31,weiblich,Gryffindor,das,Pulp Fiction,41,3,8,Herzlichkeit,positive,-200,right,Cola,200,right,-200,left,0.04,hole,left,x,True,0.341210126877
JM,31,weiblich,Gryffindor,das,Pulp Fiction,41,3,9,Glück,positive,-200,right,Bluse,200,right,200,right,1,hole,right,m,True,0.324677944183
JM,31,weiblich,Gryffindor,das,Pulp Fiction,41,3,10,Schmerz,negative,200,right,Brille,-200,left,200,right,1,hole,left,m,True,0.377523899078
JM,31,weiblich,Gryffindor,das,Pulp Fiction,41,3,11,Leid,negative,-200,right,Fahrschein,200,right,200,right,0.04,hole,right,m,True,0.279582977295
JM,31,weiblich,Gryffindor,das,Pulp Fiction,41,3,12,Stärke,positive,200,right,Name,-200,left,-200,left,1,hole,right,x,True,0.297895908356
JM,31,weiblich,Gryffindor,das,Pulp Fiction,41,3,13,Verletzung,negative,200,right,November,-200,left,-200,left,0.04,hole,right,x,True,0.330295801163
JM,31,weiblich,Gryffindor,das,Pulp Fiction,41,3,14,Schock,negative,200,right,Herr,-200,left,200,right,0.04,hole,right,m,True,0.315426111221
JM,31,weiblich,Gryffindor,das,Pulp Fiction,41,3,15,Krieg,negative,200,right,Schrank,-200,left,-200,left,0.04,hole,right,x,True,0.292446136475
JM,31,weiblich,Gryffindor,das,Pulp Fiction,41,3,16,Geschenk,positive,200,right,Diskette,-200,left,200,right,0.04,hole,right,m,True,0.286594152451
JM,31,weiblich,Gryffindor,das,Pulp Fiction,41,3,17,Verehrung,positive,200,right,Pullover,-200,left,-200,left,0.04,hole,right,x,True,0.27793598175
JM,31,weiblich,Gryffindor,das,Pulp Fiction,41,3,18,Optimismus,positive,-200,right,Projektor,200,right,-200,left,0.04,hole,right,x,True,0.304419994354
JM,31,weiblich,Gryffindor,das,Pulp Fiction,41,3,19,Anerkennung,positive,200,right,Zuschauer,-200,left,200,right,1,hole,left,m,True,0.327250003815
JM,31,weiblich,Gryffindor,das,Pulp Fiction,41,3,20,Angst,negative,200,right,Stuhl,-200,left,-200,left,0.04,hole,left,x,True,0.301728010178
JM,31,weiblich,Gryffindor,das,Pulp Fiction,41,3,21,Unglück,negative,200,right,Apfelsine,-200,left,-200,left,0.04,hole,right,x,True,0.323792934418
JM,31,weiblich,Gryffindor,das,Pulp Fiction,41,3,22,Horror,negative,-200,right,Dienstag,200,right,200,right,1,hole,left,m,True,0.307855844498
JM,31,weiblich,Gryffindor,das,Pulp Fiction,41,3,23,Wut,negative,200,right,Eintrittskarte,-200,left,200,right,1,hole,left,m,True,0.32247209549
JM,31,weiblich,Gryffindor,das,Pulp Fiction,41,3,24,Wunde,negative,-200,right,Wind,200,right,-200,left,1,hole,left,x,True,0.313406944275
