subject,age,sex,house,nutella,movie,temperature,block,trial,cue_cond,cue_valence,cue_cond_pos,cue_cond_side,cue_neutral,cue_neutral_pos,cue_neutral_side,target_pos,target_side,duration,fixation,fixation_direction,response,correct,rt
JN,20,männlich,Ravenclaw,das,Pulp Fiction,38,0,0,Freiheit,positive,200,right,Januar,-200,left,-200,left,0.04,cross,None,m,False,0.75314283371
JN,20,männlich,Ravenclaw,das,Pulp Fiction,38,0,1,Einsamkeit,negative,200,right,Kellner,-200,left,200,right,0.04,cross,None,m,True,0.538418054581
JN,20,männlich,Ravenclaw,das,Pulp Fiction,38,0,2,Leid,negative,-200,right,Park,200,right,-200,left,1,cross,None,x,True,0.983915090561
JN,20,männlich,Ravenclaw,das,Pulp Fiction,38,0,3,Rache,negative,-200,right,Fahrschein,200,right,200,right,1,cross,None,m,True,0.338712930679
JN,20,männlich,Ravenclaw,das,Pulp Fiction,38,0,4,Wut,negative,-200,right,Flughafen,200,right,-200,left,0.04,cross,None,x,True,0.505438089371
JN,20,männlich,Ravenclaw,das,Pulp Fiction,38,0,5,Schönheit,positive,200,right,Kaffee,-200,left,-200,left,1,cross,None,x,True,0.333054065704
JN,20,männlich,Ravenclaw,das,Pulp Fiction,38,0,6,Krankheit,negative,-200,right,Bibliothek,200,right,-200,left,0.04,cross,None,x,True,0.440859794617
JN,20,männlich,Ravenclaw,das,Pulp Fiction,38,0,7,Erfolg,positive,-200,right,Kakao,200,right,-200,left,0.04,cross,None,x,True,0.339706897736
JN,20,männlich,Ravenclaw,das,Pulp Fiction,38,0,8,Spaß,positive,200,right,Stuhl,-200,left,200,right,0.04,cross,None,m,True,0.32976603508
JN,20,männlich,Ravenclaw,das,Pulp Fiction,38,0,9,Reichtum,positive,-200,right,Anruf,200,right,-200,left,1,cross,None,x,True,0.668304920197
JN,20,männlich,Ravenclaw,das,Pulp Fiction,38,0,10,Frohsinn,positive,200,right,Ausweis,-200,left,200,right,0.04,cross,None,m,True,0.346194028854
JN,20,männlich,Ravenclaw,das,Pulp Fiction,38,0,11,Wunde,negative,-200,right,Juni,200,right,-200,left,0.04,cross,None,x,True,0.363233089447
JN,20,männlich,Ravenclaw,das,Pulp Fiction,38,0,12,Verzweiflung,negative,-200,right,Wind,200,right,-200,left,1,cross,None,x,True,0.307827949524
JN,20,männlich,Ravenclaw,das,Pulp Fiction,38,0,13,Kraft,positive,-200,right,Oktober,200,right,-200,left,0.04,cross,None,x,True,0.310036182404
JN,20,männlich,Ravenclaw,das,Pulp Fiction,38,0,14,Angst,negative,200,right,Bus,-200,left,200,right,0.04,cross,None,m,True,0.335955142975
JN,20,männlich,Ravenclaw,das,Pulp Fiction,38,0,15,Waffe,negative,200,right,Platz,-200,left,200,right,0.04,cross,None,m,True,0.370078086853
JN,20,männlich,Ravenclaw,das,Pulp Fiction,38,0,16,Gestank,negative,200,right,Herr,-200,left,-200,left,1,cross,None,x,True,0.286370992661
JN,20,männlich,Ravenclaw,das,Pulp Fiction,38,0,17,Bombe,negative,-200,right,Garten,200,right,200,right,1,cross,None,m,True,0.359621047974
JN,20,männlich,Ravenclaw,das,Pulp Fiction,38,0,18,Schrott,negative,200,right,Septmeber,-200,left,200,right,0.04,cross,None,m,True,0.343359947205
JN,20,männlich,Ravenclaw,das,Pulp Fiction,38,0,19,Genuss,positive,200,right,Rock,-200,left,-200,left,1,cross,None,x,True,0.277630805969
JN,20,männlich,Ravenclaw,das,Pulp Fiction,38,0,20,Ekel,negative,200,right,Brücke,-200,left,200,right,1,cross,None,m,True,0.328719139099
JN,20,männlich,Ravenclaw,das,Pulp Fiction,38,0,21,Tod,negative,-200,right,Supermarkt,200,right,-200,left,0.04,cross,None,x,True,0.350281000137
JN,20,männlich,Ravenclaw,das,Pulp Fiction,38,0,22,Übelkeit,negative,-200,right,Bank,200,right,200,right,0.04,cross,None,m,True,0.31378698349
JN,20,männlich,Ravenclaw,das,Pulp Fiction,38,0,23,Unterstützung,positive,-200,right,Gast,200,right,200,right,1,cross,None,m,True,0.352658987045
JN,20,männlich,Ravenclaw,das,Pulp Fiction,38,0,24,Schatz,positive,-200,right,Hafen,200,right,-200,left,1,cross,None,x,True,0.263851881027
JN,20,männlich,Ravenclaw,das,Pulp Fiction,38,1,0,Gefängnis,negative,-200,right,Kleiderhaken,200,right,200,right,0.04,hole,right,m,True,0.331995010376
JN,20,männlich,Ravenclaw,das,Pulp Fiction,38,1,1,Rücksichtnahme,positive,-200,right,Bluse,200,right,-200,left,1,hole,left,x,True,0.320032119751
JN,20,männlich,Ravenclaw,das,Pulp Fiction,38,1,2,Terror,negative,-200,right,Flur,200,right,200,right,1,hole,right,m,True,0.364877939224
JN,20,männlich,Ravenclaw,das,Pulp Fiction,38,1,3,Attraktivität,positive,-200,right,Bedienung,200,right,200,right,0.04,hole,right,x,False,0.344656944275
JN,20,männlich,Ravenclaw,das,Pulp Fiction,38,1,4,Müll,negative,200,right,Name,-200,left,-200,left,1,hole,left,x,True,0.30934381485
JN,20,männlich,Ravenclaw,das,Pulp Fiction,38,1,5,Treue,positive,-200,right,Kunde,200,right,200,right,0.04,hole,left,m,True,0.312959909439
JN,20,männlich,Ravenclaw,das,Pulp Fiction,38,1,6,Sucht,negative,-200,right,Mai,200,right,200,right,1,hole,left,m,True,0.418673038483
JN,20,männlich,Ravenclaw,das,Pulp Fiction,38,1,7,Totschlag,negative,200,right,Pullover,-200,left,-200,left,1,hole,right,x,True,0.569322109222
JN,20,männlich,Ravenclaw,das,Pulp Fiction,38,1,8,Regen,negative,-200,right,Bestellung,200,right,-200,left,0.04,hole,left,x,True,0.37402510643
JN,20,männlich,Ravenclaw,das,Pulp Fiction,38,1,9,Zufriedenheit,positive,200,right,Koch,-200,left,-200,left,1,hole,left,x,True,0.340147018433
JN,20,männlich,Ravenclaw,das,Pulp Fiction,38,1,10,Eleganz,positive,-200,right,Strumpf,200,right,-200,left,0.04,hole,right,x,True,0.351573944092
JN,20,männlich,Ravenclaw,das,Pulp Fiction,38,1,11,Dummheit,negative,-200,right,Computer,200,right,200,right,1,hole,left,m,True,0.325774908066
JN,20,männlich,Ravenclaw,das,Pulp Fiction,38,1,12,Verletzung,negative,-200,right,Bankkarte,200,right,200,right,0.04,hole,left,m,True,0.395243883133
JN,20,männlich,Ravenclaw,das,Pulp Fiction,38,1,13,Höflichkeit,positive,200,right,Baum,-200,left,200,right,0.04,hole,left,m,True,0.384614944458
JN,20,männlich,Ravenclaw,das,Pulp Fiction,38,1,14,Mut,positive,-200,right,Bahnhof,200,right,-200,left,0.04,hole,right,x,True,0.709770917892
JN,20,männlich,Ravenclaw,das,Pulp Fiction,38,1,15,Depression,negative,-200,right,Tag,200,right,200,right,0.04,hole,left,m,True,0.41523194313
JN,20,männlich,Ravenclaw,das,Pulp Fiction,38,1,16,Sturz,negative,-200,right,Adresse,200,right,-200,left,1,hole,right,x,True,0.514257907867
JN,20,männlich,Ravenclaw,das,Pulp Fiction,38,1,17,Hässlichkeit,negative,200,right,Anzug,-200,left,200,right,1,hole,left,m,True,0.391411066055
JN,20,männlich,Ravenclaw,das,Pulp Fiction,38,1,18,Wohlstand,positive,-200,right,Füller,200,right,200,right,0.04,hole,right,m,True,0.531251907349
JN,20,männlich,Ravenclaw,das,Pulp Fiction,38,1,19,Mord,negative,-200,right,Fußboden,200,right,-200,left,0.04,hole,left,x,True,0.312427997589
JN,20,männlich,Ravenclaw,das,Pulp Fiction,38,1,20,Unfall,negative,200,right,Tisch,-200,left,200,right,0.04,hole,right,m,True,0.388550043106
JN,20,männlich,Ravenclaw,das,Pulp Fiction,38,1,21,Droge,negative,200,right,Marktplatz,-200,left,-200,left,0.04,hole,right,x,True,0.317414999008
JN,20,männlich,Ravenclaw,das,Pulp Fiction,38,1,22,Bereicherung,positive,-200,right,Wagen,200,right,-200,left,0.04,hole,left,x,True,0.313302993774
JN,20,männlich,Ravenclaw,das,Pulp Fiction,38,1,23,Hass,negative,200,right,Zug,-200,left,-200,left,1,hole,left,x,True,0.321848154068
JN,20,männlich,Ravenclaw,das,Pulp Fiction,38,1,24,Verehrung,positive,200,right,April,-200,left,200,right,0.04,hole,right,m,True,0.465186834335
JN,20,männlich,Ravenclaw,das,Pulp Fiction,38,2,0,Schleim,negative,200,right,August,-200,left,200,right,1,cross,None,m,True,0.337093114853
JN,20,männlich,Ravenclaw,das,Pulp Fiction,38,2,1,Geschenk,positive,-200,right,Berg,200,right,-200,left,0.04,cross,None,x,True,0.331719875336
JN,20,männlich,Ravenclaw,das,Pulp Fiction,38,2,2,Krieg,negative,200,right,Decke,-200,left,200,right,1,cross,None,m,True,0.318815946579
JN,20,männlich,Ravenclaw,das,Pulp Fiction,38,2,3,Harmonie,positive,-200,right,Februar,200,right,200,right,0.04,cross,None,m,True,0.564251899719
JN,20,männlich,Ravenclaw,das,Pulp Fiction,38,2,4,Anerkennung,positive,-200,right,Dusche,200,right,200,right,1,cross,None,m,True,0.340664863586
JN,20,männlich,Ravenclaw,das,Pulp Fiction,38,2,5,Pessimismus,negative,-200,right,Schlüssel,200,right,-200,left,1,cross,None,x,True,0.292029857635
JN,20,männlich,Ravenclaw,das,Pulp Fiction,38,2,6,Heimweh,negative,-200,right,Apfel,200,right,-200,left,0.04,cross,None,x,True,0.328788995743
JN,20,männlich,Ravenclaw,das,Pulp Fiction,38,2,7,Folter,negative,-200,right,Dienstag,200,right,-200,left,1,cross,None,x,True,0.275887012482
JN,20,männlich,Ravenclaw,das,Pulp Fiction,38,2,8,Qual,negative,200,right,Laden,-200,left,-200,left,0.04,cross,None,x,True,0.443517923355
JN,20,männlich,Ravenclaw,das,Pulp Fiction,38,2,9,Ehrlichkeit,positive,-200,right,Schinken,200,right,200,right,1,cross,None,m,True,0.398986101151
JN,20,männlich,Ravenclaw,das,Pulp Fiction,38,2,10,Trennung,negative,-200,right,Bildschirm,200,right,200,right,0.04,cross,None,m,True,0.450665950775
JN,20,männlich,Ravenclaw,das,Pulp Fiction,38,2,11,Feind,negative,200,right,Hut,-200,left,-200,left,0.04,cross,None,x,True,0.364666938782
JN,20,männlich,Ravenclaw,das,Pulp Fiction,38,2,12,Optimismus,positive,-200,right,Löffel,200,right,200,right,1,cross,None,m,True,0.372809886932
JN,20,männlich,Ravenclaw,das,Pulp Fiction,38,2,13,Belohnung,positive,200,right,Keller,-200,left,-200,left,0.04,cross,None,x,True,0.356995820999
JN,20,männlich,Ravenclaw,das,Pulp Fiction,38,2,14,Kostbarkeit,positive,200,right,Cola,-200,left,200,right,1,cross,None,m,True,0.254105091095
JN,20,männlich,Ravenclaw,das,Pulp Fiction,38,2,15,Wohlbefinden,positive,-200,right,Kugelschrieber,200,right,200,right,0.04,cross,None,m,True,0.464163064957
JN,20,männlich,Ravenclaw,das,Pulp Fiction,38,2,16,Koma,negative,-200,right,Markt,200,right,-200,left,0.04,cross,None,x,True,0.28217792511
JN,20,männlich,Ravenclaw,das,Pulp Fiction,38,2,17,Vergnügen,positive,-200,right,Dose,200,right,200,right,0.04,cross,None,m,True,0.418828964233
JN,20,männlich,Ravenclaw,das,Pulp Fiction,38,2,18,Bewunderung,positive,-200,right,Zeiger,200,right,200,right,1,cross,None,m,True,0.351691007614
JN,20,männlich,Ravenclaw,das,Pulp Fiction,38,2,19,Glück,positive,-200,right,Geburtstag,200,right,-200,left,0.04,cross,None,x,True,0.284432888031
JN,20,männlich,Ravenclaw,das,Pulp Fiction,38,2,20,Schrei,negative,200,right,Monitor,-200,left,-200,left,1,cross,None,x,True,0.514724969864
JN,20,männlich,Ravenclaw,das,Pulp Fiction,38,2,21,Leidenschaft,positive,-200,right,Sessel,200,right,200,right,0.04,cross,None,m,True,0.367624044418
JN,20,männlich,Ravenclaw,das,Pulp Fiction,38,2,22,Neid,negative,-200,right,Tee,200,right,200,right,0.04,cross,None,m,True,0.30338716507
JN,20,männlich,Ravenclaw,das,Pulp Fiction,38,2,23,Armut,negative,-200,right,Diskette,200,right,200,right,1,cross,None,m,True,0.33070898056
JN,20,männlich,Ravenclaw,das,Pulp Fiction,38,2,24,Beliebtheit,positive,200,right,Passant,-200,left,-200,left,1,cross,None,x,True,0.344554901123
JN,20,männlich,Ravenclaw,das,Pulp Fiction,38,3,0,Geisel,negative,-200,right,RadiergummI,200,right,200,right,0.04,hole,left,m,True,0.33858704567
JN,20,männlich,Ravenclaw,das,Pulp Fiction,38,3,1,Schock,negative,200,right,Drucker,-200,left,-200,left,0.04,hole,left,x,True,0.337733030319
JN,20,männlich,Ravenclaw,das,Pulp Fiction,38,3,2,Panik,negative,200,right,Zucker,-200,left,-200,left,1,hole,left,x,True,0.318120002747
JN,20,männlich,Ravenclaw,das,Pulp Fiction,38,3,3,Frieden,positive,200,right,Zuschauer,-200,left,-200,left,0.04,hole,left,x,True,0.338241100311
JN,20,männlich,Ravenclaw,das,Pulp Fiction,38,3,4,Horror,negative,200,right,November,-200,left,-200,left,0.04,hole,right,x,True,0.444985151291
JN,20,männlich,Ravenclaw,das,Pulp Fiction,38,3,5,Anschlag,negative,-200,right,Fuß,200,right,-200,left,1,hole,left,x,True,0.434899806976
JN,20,männlich,Ravenclaw,das,Pulp Fiction,38,3,6,Schmerz,negative,200,right,Eintrittskarte,-200,left,200,right,1,hole,left,m,True,0.297220945358
JN,20,männlich,Ravenclaw,das,Pulp Fiction,38,3,7,Freundschaft,positive,-200,right,Finger,200,right,200,right,1,hole,right,m,True,0.42466211319
JN,20,männlich,Ravenclaw,das,Pulp Fiction,38,3,8,Unglück,negative,200,right,Fernseher,-200,left,-200,left,1,hole,left,x,True,0.289071083069
JN,20,männlich,Ravenclaw,das,Pulp Fiction,38,3,9,Trauer,negative,200,right,Teppich,-200,left,-200,left,1,hole,right,x,True,0.28334403038
JN,20,männlich,Ravenclaw,das,Pulp Fiction,38,3,10,Solidarität,positive,-200,right,Apfelsine,200,right,-200,left,1,hole,right,x,True,0.332692861557
JN,20,männlich,Ravenclaw,das,Pulp Fiction,38,3,11,Dankbarkeit,positive,200,right,Brille,-200,left,200,right,1,hole,right,m,True,0.515305995941
JN,20,männlich,Ravenclaw,das,Pulp Fiction,38,3,12,Zuverlässigkeit,positive,200,right,Dezember,-200,left,200,right,1,hole,left,m,True,0.428934812546
JN,20,männlich,Ravenclaw,das,Pulp Fiction,38,3,13,Gesundheit,positive,-200,right,Eile,200,right,200,right,0.04,hole,right,m,True,0.485352993011
JN,20,männlich,Ravenclaw,das,Pulp Fiction,38,3,14,Hilfsbereitschaft,positive,200,right,Einwohner,-200,left,200,right,0.04,hole,right,m,True,0.429909944534
JN,20,männlich,Ravenclaw,das,Pulp Fiction,38,3,15,Sicherheit,positive,-200,right,Beschreibung,200,right,200,right,1,hole,right,m,True,0.414376020432
JN,20,männlich,Ravenclaw,das,Pulp Fiction,38,3,16,Gerechtigkeit,positive,-200,right,Balkon,200,right,-200,left,1,hole,right,x,True,0.276049852371
JN,20,männlich,Ravenclaw,das,Pulp Fiction,38,3,17,Stärke,positive,-200,right,Locher,200,right,-200,left,1,hole,right,x,True,0.400126934052
JN,20,männlich,Ravenclaw,das,Pulp Fiction,38,3,18,Lebensfreude,positive,200,right,Apotheke,-200,left,-200,left,0.04,hole,right,x,True,0.336453914642
JN,20,männlich,Ravenclaw,das,Pulp Fiction,38,3,19,Entspannung,positive,-200,right,Pass,200,right,-200,left,0.04,hole,left,x,True,0.323143959045
JN,20,männlich,Ravenclaw,das,Pulp Fiction,38,3,20,Tapferkeit,positive,200,right,Schrank,-200,left,200,right,0.04,hole,right,m,True,0.402948856354
JN,20,männlich,Ravenclaw,das,Pulp Fiction,38,3,21,Sympathie,positive,-200,right,Projektor,200,right,-200,left,1,hole,left,x,True,1.1764190197
JN,20,männlich,Ravenclaw,das,Pulp Fiction,38,3,22,Lachen,positive,200,right,März,-200,left,-200,left,1,hole,left,x,True,0.326312065125
JN,20,männlich,Ravenclaw,das,Pulp Fiction,38,3,23,Herzlichkeit,positive,200,right,Dolmetscherin,-200,left,-200,left,1,hole,right,x,True,0.32116818428
JN,20,männlich,Ravenclaw,das,Pulp Fiction,38,3,24,Liebe,positive,200,right,Juli,-200,left,-200,left,0.04,hole,right,x,True,0.423722028732
