subject,age,sex,house,nutella,movie,temperature,block,trial,cue_cond,cue_valence,cue_cond_pos,cue_cond_side,cue_neutral,cue_neutral_pos,cue_neutral_side,target_pos,target_side,duration,fixation,fixation_direction,response,correct,rt
NvR,44,weiblich,Hufflepuff,die,Der Pate,39,0,0,Hässlichkeit,negative,200,right,Zucker,-200,left,-200,left,1,cross,None,x,True,0.60081911087
NvR,44,weiblich,Hufflepuff,die,Der Pate,39,0,1,Zuverlässigkeit,positive,200,right,Pullover,-200,left,200,right,0.04,cross,None,m,True,0.498757123947
NvR,44,weiblich,Hufflepuff,die,Der Pate,39,0,2,Zufriedenheit,positive,200,right,Juni,-200,left,200,right,1,cross,None,m,True,0.501400947571
NvR,44,weiblich,Hufflepuff,die,Der Pate,39,0,3,Einsamkeit,negative,200,right,Einwohner,-200,left,-200,left,0.04,cross,None,x,True,0.523980855942
NvR,44,weiblich,Hufflepuff,die,Der Pate,39,0,4,Erfolg,positive,200,right,Brille,-200,left,200,right,0.04,cross,None,m,True,0.454894065857
NvR,44,weiblich,Hufflepuff,die,Der Pate,39,0,5,Beliebtheit,positive,-200,right,Berg,200,right,-200,left,0.04,cross,None,x,True,0.580677986145
NvR,44,weiblich,Hufflepuff,die,Der Pate,39,0,6,Wut,negative,-200,right,Platz,200,right,-200,left,1,cross,None,x,True,0.460070133209
NvR,44,weiblich,Hufflepuff,die,Der Pate,39,0,7,Neid,negative,200,right,Sessel,-200,left,-200,left,1,cross,None,x,True,0.334463119507
NvR,44,weiblich,Hufflepuff,die,Der Pate,39,0,8,Anschlag,negative,-200,right,RadiergummI,200,right,200,right,0.04,cross,None,m,True,0.36212182045
NvR,44,weiblich,Hufflepuff,die,Der Pate,39,0,9,Tod,negative,200,right,Bankkarte,-200,left,-200,left,0.04,cross,None,x,True,0.365607976913
NvR,44,weiblich,Hufflepuff,die,Der Pate,39,0,10,Lebensfreude,positive,200,right,Herr,-200,left,200,right,0.04,cross,None,m,True,0.344844102859
NvR,44,weiblich,Hufflepuff,die,Der Pate,39,0,11,Bewunderung,positive,200,right,Septmeber,-200,left,200,right,0.04,cross,None,m,True,0.374902009964
NvR,44,weiblich,Hufflepuff,die,Der Pate,39,0,12,Entspannung,positive,200,right,Decke,-200,left,200,right,1,cross,None,m,True,0.333666801453
NvR,44,weiblich,Hufflepuff,die,Der Pate,39,0,13,Freundschaft,positive,-200,right,März,200,right,-200,left,0.04,cross,None,x,True,0.448395967484
NvR,44,weiblich,Hufflepuff,die,Der Pate,39,0,14,Schönheit,positive,-200,right,August,200,right,200,right,1,cross,None,m,True,0.320859909058
NvR,44,weiblich,Hufflepuff,die,Der Pate,39,0,15,Angst,negative,-200,right,Supermarkt,200,right,-200,left,0.04,cross,None,x,True,0.371817111969
NvR,44,weiblich,Hufflepuff,die,Der Pate,39,0,16,Heimweh,negative,200,right,Cola,-200,left,-200,left,0.04,cross,None,x,True,0.200877904892
NvR,44,weiblich,Hufflepuff,die,Der Pate,39,0,17,Schrott,negative,200,right,Markt,-200,left,200,right,1,cross,None,m,True,0.327944993973
NvR,44,weiblich,Hufflepuff,die,Der Pate,39,0,18,Hass,negative,-200,right,Mai,200,right,200,right,1,cross,None,m,True,0.3560090065
NvR,44,weiblich,Hufflepuff,die,Der Pate,39,0,19,Gesundheit,positive,-200,right,Projektor,200,right,200,right,0.04,cross,None,m,True,0.315864086151
NvR,44,weiblich,Hufflepuff,die,Der Pate,39,0,20,Freiheit,positive,200,right,Park,-200,left,200,right,0.04,cross,None,m,True,0.328869104385
NvR,44,weiblich,Hufflepuff,die,Der Pate,39,0,21,Kraft,positive,200,right,Geburtstag,-200,left,-200,left,1,cross,None,x,True,0.590739011765
NvR,44,weiblich,Hufflepuff,die,Der Pate,39,0,22,Verehrung,positive,200,right,Flur,-200,left,200,right,1,cross,None,m,True,0.313409805298
NvR,44,weiblich,Hufflepuff,die,Der Pate,39,0,23,Wohlstand,positive,200,right,Bank,-200,left,200,right,0.04,cross,None,m,True,0.496870994568
NvR,44,weiblich,Hufflepuff,die,Der Pate,39,0,24,Belohnung,positive,200,right,Kleiderhaken,-200,left,200,right,0.04,cross,None,m,True,0.339420080185
NvR,44,weiblich,Hufflepuff,die,Der Pate,39,1,0,Müll,negative,-200,right,Zug,200,right,200,right,0.04,hole,left,m,True,0.419375896454
NvR,44,weiblich,Hufflepuff,die,Der Pate,39,1,1,Attraktivität,positive,-200,right,Marktplatz,200,right,-200,left,1,hole,left,x,True,0.342525005341
NvR,44,weiblich,Hufflepuff,die,Der Pate,39,1,2,Gefängnis,negative,200,right,Garten,-200,left,-200,left,1,hole,right,x,True,0.491627931595
NvR,44,weiblich,Hufflepuff,die,Der Pate,39,1,3,Schock,negative,200,right,Dose,-200,left,200,right,1,hole,left,m,True,0.393203020096
NvR,44,weiblich,Hufflepuff,die,Der Pate,39,1,4,Regen,negative,-200,right,Balkon,200,right,200,right,1,hole,right,m,True,0.426375865936
NvR,44,weiblich,Hufflepuff,die,Der Pate,39,1,5,Ekel,negative,200,right,Anzug,-200,left,200,right,0.04,hole,left,m,True,0.355401992798
NvR,44,weiblich,Hufflepuff,die,Der Pate,39,1,6,Frohsinn,positive,-200,right,Apfel,200,right,200,right,1,hole,right,m,True,0.356737136841
NvR,44,weiblich,Hufflepuff,die,Der Pate,39,1,7,Horror,negative,200,right,Tee,-200,left,200,right,0.04,hole,left,m,True,0.345977067947
NvR,44,weiblich,Hufflepuff,die,Der Pate,39,1,8,Trennung,negative,200,right,Monitor,-200,left,-200,left,1,hole,left,x,True,0.315419912338
NvR,44,weiblich,Hufflepuff,die,Der Pate,39,1,9,Qual,negative,200,right,Dezember,-200,left,-200,left,0.04,hole,left,x,True,0.718382835388
NvR,44,weiblich,Hufflepuff,die,Der Pate,39,1,10,Kostbarkeit,positive,200,right,Flughafen,-200,left,200,right,0.04,hole,right,m,True,0.405297994614
NvR,44,weiblich,Hufflepuff,die,Der Pate,39,1,11,Feind,negative,-200,right,Fernseher,200,right,200,right,0.04,hole,right,m,True,0.507056951523
NvR,44,weiblich,Hufflepuff,die,Der Pate,39,1,12,Liebe,positive,200,right,Drucker,-200,left,-200,left,1,hole,right,x,True,0.370389938354
NvR,44,weiblich,Hufflepuff,die,Der Pate,39,1,13,Dummheit,negative,-200,right,Laden,200,right,-200,left,1,hole,left,x,True,0.300311088562
NvR,44,weiblich,Hufflepuff,die,Der Pate,39,1,14,Höflichkeit,positive,-200,right,Strumpf,200,right,-200,left,1,hole,right,m,False,0.312372922897
NvR,44,weiblich,Hufflepuff,die,Der Pate,39,1,15,Sympathie,positive,200,right,Wagen,-200,left,-200,left,1,hole,right,x,True,0.292983055115
NvR,44,weiblich,Hufflepuff,die,Der Pate,39,1,16,Gerechtigkeit,positive,-200,right,Diskette,200,right,-200,left,1,hole,right,x,True,0.482276916504
NvR,44,weiblich,Hufflepuff,die,Der Pate,39,1,17,Totschlag,negative,200,right,Hut,-200,left,-200,left,0.04,hole,right,x,True,0.440678119659
NvR,44,weiblich,Hufflepuff,die,Der Pate,39,1,18,Schatz,positive,-200,right,Februar,200,right,-200,left,1,hole,left,x,True,0.321865081787
NvR,44,weiblich,Hufflepuff,die,Der Pate,39,1,19,Lachen,positive,200,right,Kunde,-200,left,200,right,0.04,hole,left,m,True,0.527536153793
NvR,44,weiblich,Hufflepuff,die,Der Pate,39,1,20,Geschenk,positive,-200,right,Dusche,200,right,-200,left,1,hole,right,x,True,0.349740028381
NvR,44,weiblich,Hufflepuff,die,Der Pate,39,1,21,Harmonie,positive,-200,right,Schinken,200,right,-200,left,0.04,hole,left,x,True,0.389293193817
NvR,44,weiblich,Hufflepuff,die,Der Pate,39,1,22,Sucht,negative,-200,right,Löffel,200,right,-200,left,0.04,hole,right,x,True,0.385497093201
NvR,44,weiblich,Hufflepuff,die,Der Pate,39,1,23,Frieden,positive,200,right,Bahnhof,-200,left,200,right,1,hole,left,x,False,0.486425876617
NvR,44,weiblich,Hufflepuff,die,Der Pate,39,1,24,Unglück,negative,200,right,Apfelsine,-200,left,-200,left,0.04,hole,left,x,True,0.379566192627
NvR,44,weiblich,Hufflepuff,die,Der Pate,39,2,0,Tapferkeit,positive,200,right,Füller,-200,left,-200,left,1,cross,None,x,True,0.321567773819
NvR,44,weiblich,Hufflepuff,die,Der Pate,39,2,1,Eleganz,positive,200,right,Kellner,-200,left,-200,left,1,cross,None,x,True,0.383269071579
NvR,44,weiblich,Hufflepuff,die,Der Pate,39,2,2,Leidenschaft,positive,-200,right,Brücke,200,right,-200,left,1,cross,None,x,True,0.353650093079
NvR,44,weiblich,Hufflepuff,die,Der Pate,39,2,3,Rücksichtnahme,positive,200,right,Locher,-200,left,200,right,1,cross,None,m,True,0.344961166382
NvR,44,weiblich,Hufflepuff,die,Der Pate,39,2,4,Stärke,positive,-200,right,Fuß,200,right,-200,left,1,cross,None,x,True,0.324611902237
NvR,44,weiblich,Hufflepuff,die,Der Pate,39,2,5,Reichtum,positive,-200,right,Stuhl,200,right,200,right,1,cross,None,m,True,0.35079908371
NvR,44,weiblich,Hufflepuff,die,Der Pate,39,2,6,Sicherheit,positive,-200,right,Eintrittskarte,200,right,-200,left,1,cross,None,x,True,0.344419956207
NvR,44,weiblich,Hufflepuff,die,Der Pate,39,2,7,Unterstützung,positive,-200,right,Dolmetscherin,200,right,-200,left,0.04,cross,None,x,True,0.367902040482
NvR,44,weiblich,Hufflepuff,die,Der Pate,39,2,8,Koma,negative,200,right,Kugelschrieber,-200,left,-200,left,1,cross,None,x,True,0.345993041992
NvR,44,weiblich,Hufflepuff,die,Der Pate,39,2,9,Leid,negative,200,right,Baum,-200,left,200,right,1,cross,None,m,True,0.39461684227
NvR,44,weiblich,Hufflepuff,die,Der Pate,39,2,10,Unfall,negative,-200,right,Computer,200,right,-200,left,1,cross,None,x,True,0.318848848343
NvR,44,weiblich,Hufflepuff,die,Der Pate,39,2,11,Depression,negative,200,right,Eile,-200,left,-200,left,0.04,cross,None,x,True,0.378340005875
NvR,44,weiblich,Hufflepuff,die,Der Pate,39,2,12,Mut,positive,200,right,Zuschauer,-200,left,-200,left,0.04,cross,None,x,True,0.391831159592
NvR,44,weiblich,Hufflepuff,die,Der Pate,39,2,13,Glück,positive,-200,right,Koch,200,right,-200,left,1,cross,None,x,True,0.304999828339
NvR,44,weiblich,Hufflepuff,die,Der Pate,39,2,14,Droge,negative,200,right,Beschreibung,-200,left,-200,left,0.04,cross,None,x,True,0.350359916687
NvR,44,weiblich,Hufflepuff,die,Der Pate,39,2,15,Mord,negative,200,right,Fußboden,-200,left,-200,left,0.04,cross,None,x,True,0.447358846664
NvR,44,weiblich,Hufflepuff,die,Der Pate,39,2,16,Verzweiflung,negative,-200,right,Finger,200,right,200,right,0.04,cross,None,m,True,0.40261888504
NvR,44,weiblich,Hufflepuff,die,Der Pate,39,2,17,Anerkennung,positive,-200,right,Bibliothek,200,right,200,right,1,cross,None,m,True,0.349681138992
NvR,44,weiblich,Hufflepuff,die,Der Pate,39,2,18,Armut,negative,-200,right,Tag,200,right,-200,left,0.04,cross,None,x,True,0.379375934601
NvR,44,weiblich,Hufflepuff,die,Der Pate,39,2,19,Rache,negative,200,right,Bildschirm,-200,left,-200,left,0.04,cross,None,x,True,0.334006071091
NvR,44,weiblich,Hufflepuff,die,Der Pate,39,2,20,Gestank,negative,200,right,Apotheke,-200,left,-200,left,0.04,cross,None,x,True,0.378727912903
NvR,44,weiblich,Hufflepuff,die,Der Pate,39,2,21,Dankbarkeit,positive,-200,right,Bluse,200,right,-200,left,0.04,cross,None,x,True,0.368155956268
NvR,44,weiblich,Hufflepuff,die,Der Pate,39,2,22,Verletzung,negative,-200,right,Kakao,200,right,200,right,1,cross,None,m,True,0.342797040939
NvR,44,weiblich,Hufflepuff,die,Der Pate,39,2,23,Schmerz,negative,-200,right,Schrank,200,right,-200,left,0.04,cross,None,x,True,0.385127782822
NvR,44,weiblich,Hufflepuff,die,Der Pate,39,2,24,Trauer,negative,-200,right,Bedienung,200,right,200,right,0.04,cross,None,m,True,0.384870052338
NvR,44,weiblich,Hufflepuff,die,Der Pate,39,3,0,Folter,negative,-200,right,Ausweis,200,right,200,right,1,hole,left,m,True,0.343816041946
NvR,44,weiblich,Hufflepuff,die,Der Pate,39,3,1,Krieg,negative,-200,right,Name,200,right,200,right,0.04,hole,left,m,True,0.346411943436
NvR,44,weiblich,Hufflepuff,die,Der Pate,39,3,2,Schleim,negative,-200,right,Fahrschein,200,right,200,right,0.04,hole,left,m,True,0.359068870544
NvR,44,weiblich,Hufflepuff,die,Der Pate,39,3,3,Terror,negative,-200,right,Keller,200,right,-200,left,1,hole,right,x,True,0.3305580616
NvR,44,weiblich,Hufflepuff,die,Der Pate,39,3,4,Krankheit,negative,-200,right,Oktober,200,right,-200,left,1,hole,right,x,True,0.479667901993
NvR,44,weiblich,Hufflepuff,die,Der Pate,39,3,5,Bombe,negative,-200,right,Zeiger,200,right,-200,left,0.04,hole,right,x,True,0.735739946365
NvR,44,weiblich,Hufflepuff,die,Der Pate,39,3,6,Treue,positive,-200,right,Rock,200,right,200,right,1,hole,right,m,True,0.616637945175
NvR,44,weiblich,Hufflepuff,die,Der Pate,39,3,7,Waffe,negative,-200,right,Passant,200,right,200,right,1,hole,left,m,True,0.365965127945
NvR,44,weiblich,Hufflepuff,die,Der Pate,39,3,8,Ehrlichkeit,positive,200,right,Dienstag,-200,left,-200,left,0.04,hole,left,x,True,0.391532897949
NvR,44,weiblich,Hufflepuff,die,Der Pate,39,3,9,Pessimismus,negative,-200,right,Kaffee,200,right,-200,left,0.04,hole,left,x,True,0.389093875885
NvR,44,weiblich,Hufflepuff,die,Der Pate,39,3,10,Bereicherung,positive,200,right,Anruf,-200,left,-200,left,0.04,hole,left,x,True,0.333335161209
NvR,44,weiblich,Hufflepuff,die,Der Pate,39,3,11,Wunde,negative,200,right,Wind,-200,left,-200,left,0.04,hole,left,x,True,0.336398124695
NvR,44,weiblich,Hufflepuff,die,Der Pate,39,3,12,Schrei,negative,-200,right,November,200,right,-200,left,1,hole,right,x,True,0.332047939301
NvR,44,weiblich,Hufflepuff,die,Der Pate,39,3,13,Spaß,positive,-200,right,Adresse,200,right,-200,left,0.04,hole,right,x,True,0.366540908813
NvR,44,weiblich,Hufflepuff,die,Der Pate,39,3,14,Solidarität,positive,-200,right,Bestellung,200,right,200,right,1,hole,right,m,True,0.352286815643
NvR,44,weiblich,Hufflepuff,die,Der Pate,39,3,15,Panik,negative,200,right,Schlüssel,-200,left,200,right,1,hole,right,m,True,0.342221021652
NvR,44,weiblich,Hufflepuff,die,Der Pate,39,3,16,Herzlichkeit,positive,-200,right,Bus,200,right,-200,left,0.04,hole,right,x,True,0.379312038422
NvR,44,weiblich,Hufflepuff,die,Der Pate,39,3,17,Genuss,positive,-200,right,Pass,200,right,200,right,0.04,hole,right,m,True,0.388203859329
NvR,44,weiblich,Hufflepuff,die,Der Pate,39,3,18,Geisel,negative,200,right,Hafen,-200,left,200,right,0.04,hole,left,m,True,0.40328502655
NvR,44,weiblich,Hufflepuff,die,Der Pate,39,3,19,Übelkeit,negative,-200,right,Januar,200,right,200,right,0.04,hole,right,m,True,0.359054088593
NvR,44,weiblich,Hufflepuff,die,Der Pate,39,3,20,Wohlbefinden,positive,-200,right,Gast,200,right,200,right,0.04,hole,right,m,True,0.349344015121
NvR,44,weiblich,Hufflepuff,die,Der Pate,39,3,21,Sturz,negative,200,right,Juli,-200,left,200,right,1,hole,left,m,True,0.352781057358
NvR,44,weiblich,Hufflepuff,die,Der Pate,39,3,22,Optimismus,positive,200,right,April,-200,left,-200,left,0.04,hole,right,x,True,0.415103912354
NvR,44,weiblich,Hufflepuff,die,Der Pate,39,3,23,Hilfsbereitschaft,positive,200,right,Teppich,-200,left,-200,left,0.04,hole,left,x,True,0.524188995361
NvR,44,weiblich,Hufflepuff,die,Der Pate,39,3,24,Vergnügen,positive,200,right,Tisch,-200,left,-200,left,0.04,hole,left,x,True,0.355652093887
