subject,age,sex,house,nutella,movie,temperature,block,trial,cue_cond,cue_valence,cue_cond_pos,cue_cond_side,cue_neutral,cue_neutral_pos,cue_neutral_side,target_pos,target_side,duration,fixation,fixation_direction,response,correct,rt
Paulina,23,weiblich,Gryffindor,das,Pulp Fiction,40,0,0,Frieden,positive,200,right,Dezember,-200,left,-200,left,1,cross,None,x,True,0.59777879715
Paulina,23,weiblich,Gryffindor,das,Pulp Fiction,40,0,1,Harmonie,positive,200,right,Garten,-200,left,200,right,1,cross,None,m,True,0.533647060394
Paulina,23,weiblich,Gryffindor,das,Pulp Fiction,40,0,2,Übelkeit,negative,-200,right,Juni,200,right,-200,left,0.04,cross,None,x,True,0.596666812897
Paulina,23,weiblich,Gryffindor,das,Pulp Fiction,40,0,3,Geschenk,positive,-200,right,Kakao,200,right,-200,left,0.04,cross,None,x,True,0.648167848587
Paulina,23,weiblich,Gryffindor,das,Pulp Fiction,40,0,4,Unglück,negative,-200,right,Marktplatz,200,right,-200,left,0.04,cross,None,x,True,0.839666128159
Paulina,23,weiblich,Gryffindor,das,Pulp Fiction,40,0,5,Gerechtigkeit,positive,-200,right,Bedienung,200,right,200,right,1,cross,None,miss,False,-999
Paulina,23,weiblich,Gryffindor,das,Pulp Fiction,40,0,6,Wohlbefinden,positive,200,right,Füller,-200,left,200,right,0.04,cross,None,m,True,0.467811107635
Paulina,23,weiblich,Gryffindor,das,Pulp Fiction,40,0,7,Verehrung,positive,200,right,Monitor,-200,left,200,right,1,cross,None,m,True,0.295276165009
Paulina,23,weiblich,Gryffindor,das,Pulp Fiction,40,0,8,Tapferkeit,positive,200,right,Berg,-200,left,-200,left,1,cross,None,x,True,0.317419052124
Paulina,23,weiblich,Gryffindor,das,Pulp Fiction,40,0,9,Mut,positive,-200,right,Platz,200,right,200,right,1,cross,None,m,True,0.300203084946
Paulina,23,weiblich,Gryffindor,das,Pulp Fiction,40,0,10,Trennung,negative,200,right,Kunde,-200,left,200,right,1,cross,None,m,True,0.392451047897
Paulina,23,weiblich,Gryffindor,das,Pulp Fiction,40,0,11,Krieg,negative,200,right,Finger,-200,left,-200,left,0.04,cross,None,x,True,0.393075227737
Paulina,23,weiblich,Gryffindor,das,Pulp Fiction,40,0,12,Attraktivität,positive,200,right,Herr,-200,left,200,right,0.04,cross,None,m,True,0.29131603241
Paulina,23,weiblich,Gryffindor,das,Pulp Fiction,40,0,13,Eleganz,positive,200,right,Einwohner,-200,left,200,right,1,cross,None,m,True,0.316838026047
Paulina,23,weiblich,Gryffindor,das,Pulp Fiction,40,0,14,Krankheit,negative,200,right,August,-200,left,-200,left,0.04,cross,None,x,True,0.300469875336
Paulina,23,weiblich,Gryffindor,das,Pulp Fiction,40,0,15,Feind,negative,200,right,Löffel,-200,left,-200,left,0.04,cross,None,x,True,0.302030801773
Paulina,23,weiblich,Gryffindor,das,Pulp Fiction,40,0,16,Bereicherung,positive,200,right,Hut,-200,left,-200,left,1,cross,None,x,True,0.319909095764
Paulina,23,weiblich,Gryffindor,das,Pulp Fiction,40,0,17,Qual,negative,200,right,Brücke,-200,left,-200,left,1,cross,None,x,True,0.294944047928
Paulina,23,weiblich,Gryffindor,das,Pulp Fiction,40,0,18,Sicherheit,positive,-200,right,Passant,200,right,-200,left,1,cross,None,x,True,0.322810173035
Paulina,23,weiblich,Gryffindor,das,Pulp Fiction,40,0,19,Dankbarkeit,positive,-200,right,Apfel,200,right,-200,left,0.04,cross,None,x,True,0.306437969208
Paulina,23,weiblich,Gryffindor,das,Pulp Fiction,40,0,20,Ehrlichkeit,positive,-200,right,Laden,200,right,200,right,0.04,cross,None,m,True,0.303280115128
Paulina,23,weiblich,Gryffindor,das,Pulp Fiction,40,0,21,Wohlstand,positive,-200,right,Markt,200,right,200,right,1,cross,None,m,True,0.31894493103
Paulina,23,weiblich,Gryffindor,das,Pulp Fiction,40,0,22,Sturz,negative,-200,right,Tag,200,right,200,right,1,cross,None,m,True,0.264997005463
Paulina,23,weiblich,Gryffindor,das,Pulp Fiction,40,0,23,Verletzung,negative,-200,right,Tisch,200,right,200,right,1,cross,None,m,True,0.288008928299
Paulina,23,weiblich,Gryffindor,das,Pulp Fiction,40,0,24,Liebe,positive,200,right,Fußboden,-200,left,200,right,0.04,cross,None,m,True,0.312201023102
Paulina,23,weiblich,Gryffindor,das,Pulp Fiction,40,1,0,Schönheit,positive,200,right,Mai,-200,left,200,right,0.04,hole,right,m,True,0.288408994675
Paulina,23,weiblich,Gryffindor,das,Pulp Fiction,40,1,1,Leidenschaft,positive,-200,right,Dolmetscherin,200,right,200,right,1,hole,left,m,True,0.306658029556
Paulina,23,weiblich,Gryffindor,das,Pulp Fiction,40,1,2,Hass,negative,200,right,Cola,-200,left,-200,left,0.04,hole,left,m,False,0.29240489006
Paulina,23,weiblich,Gryffindor,das,Pulp Fiction,40,1,3,Solidarität,positive,-200,right,Koch,200,right,200,right,1,hole,right,m,True,0.303959131241
Paulina,23,weiblich,Gryffindor,das,Pulp Fiction,40,1,4,Verzweiflung,negative,200,right,Anzug,-200,left,-200,left,1,hole,left,x,True,0.321194887161
Paulina,23,weiblich,Gryffindor,das,Pulp Fiction,40,1,5,Armut,negative,200,right,Flughafen,-200,left,200,right,0.04,hole,right,m,True,0.275587081909
Paulina,23,weiblich,Gryffindor,das,Pulp Fiction,40,1,6,Bombe,negative,-200,right,Supermarkt,200,right,-200,left,1,hole,left,x,True,0.257898807526
Paulina,23,weiblich,Gryffindor,das,Pulp Fiction,40,1,7,Waffe,negative,-200,right,Schrank,200,right,200,right,1,hole,left,m,True,0.256427049637
Paulina,23,weiblich,Gryffindor,das,Pulp Fiction,40,1,8,Trauer,negative,200,right,Computer,-200,left,-200,left,1,hole,left,x,True,0.311033964157
Paulina,23,weiblich,Gryffindor,das,Pulp Fiction,40,1,9,Höflichkeit,positive,-200,right,Eile,200,right,-200,left,1,hole,left,x,True,0.299592971802
Paulina,23,weiblich,Gryffindor,das,Pulp Fiction,40,1,10,Stärke,positive,200,right,Drucker,-200,left,200,right,0.04,hole,left,m,True,0.297196149826
Paulina,23,weiblich,Gryffindor,das,Pulp Fiction,40,1,11,Tod,negative,200,right,Fahrschein,-200,left,200,right,0.04,hole,right,m,True,0.281698942184
Paulina,23,weiblich,Gryffindor,das,Pulp Fiction,40,1,12,Sympathie,positive,200,right,Ausweis,-200,left,200,right,1,hole,left,m,True,0.285020828247
Paulina,23,weiblich,Gryffindor,das,Pulp Fiction,40,1,13,Bewunderung,positive,-200,right,Bluse,200,right,-200,left,0.04,hole,left,x,True,0.311553001404
Paulina,23,weiblich,Gryffindor,das,Pulp Fiction,40,1,14,Schleim,negative,-200,right,Bankkarte,200,right,200,right,0.04,hole,left,m,True,0.279789209366
Paulina,23,weiblich,Gryffindor,das,Pulp Fiction,40,1,15,Frohsinn,positive,200,right,Balkon,-200,left,200,right,0.04,hole,right,m,True,0.30603313446
Paulina,23,weiblich,Gryffindor,das,Pulp Fiction,40,1,16,Spaß,positive,200,right,Gast,-200,left,200,right,0.04,hole,left,m,True,0.323587179184
Paulina,23,weiblich,Gryffindor,das,Pulp Fiction,40,1,17,Zuverlässigkeit,positive,200,right,Bestellung,-200,left,200,right,1,hole,right,m,True,0.296448945999
Paulina,23,weiblich,Gryffindor,das,Pulp Fiction,40,1,18,Wunde,negative,-200,right,Bibliothek,200,right,200,right,1,hole,left,m,True,0.348263025284
Paulina,23,weiblich,Gryffindor,das,Pulp Fiction,40,1,19,Belohnung,positive,-200,right,Strumpf,200,right,200,right,0.04,hole,right,m,True,0.285613059998
Paulina,23,weiblich,Gryffindor,das,Pulp Fiction,40,1,20,Reichtum,positive,200,right,Locher,-200,left,-200,left,1,hole,right,x,True,0.330084085464
Paulina,23,weiblich,Gryffindor,das,Pulp Fiction,40,1,21,Freundschaft,positive,-200,right,Name,200,right,200,right,1,hole,right,m,True,0.304648160934
Paulina,23,weiblich,Gryffindor,das,Pulp Fiction,40,1,22,Ekel,negative,-200,right,Diskette,200,right,-200,left,1,hole,left,x,True,0.359704971313
Paulina,23,weiblich,Gryffindor,das,Pulp Fiction,40,1,23,Entspannung,positive,200,right,Keller,-200,left,200,right,1,hole,left,m,True,0.162020921707
Paulina,23,weiblich,Gryffindor,das,Pulp Fiction,40,1,24,Depression,negative,-200,right,Hafen,200,right,-200,left,0.04,hole,left,x,True,0.327166080475
Paulina,23,weiblich,Gryffindor,das,Pulp Fiction,40,2,0,Anschlag,negative,-200,right,Zeiger,200,right,-200,left,0.04,cross,None,x,True,0.669367074966
Paulina,23,weiblich,Gryffindor,das,Pulp Fiction,40,2,1,Optimismus,positive,200,right,Eintrittskarte,-200,left,200,right,0.04,cross,None,m,True,0.633892059326
Paulina,23,weiblich,Gryffindor,das,Pulp Fiction,40,2,2,Anerkennung,positive,-200,right,Kaffee,200,right,200,right,0.04,cross,None,x,False,1.49733901024
Paulina,23,weiblich,Gryffindor,das,Pulp Fiction,40,2,3,Herzlichkeit,positive,200,right,Anruf,-200,left,-200,left,0.04,cross,None,x,True,1.7233710289
Paulina,23,weiblich,Gryffindor,das,Pulp Fiction,40,2,4,Glück,positive,-200,right,Bahnhof,200,right,-200,left,1,cross,None,x,True,0.387001991272
Paulina,23,weiblich,Gryffindor,das,Pulp Fiction,40,2,5,Rücksichtnahme,positive,200,right,Decke,-200,left,200,right,1,cross,None,m,True,0.301810979843
Paulina,23,weiblich,Gryffindor,das,Pulp Fiction,40,2,6,Freiheit,positive,200,right,Septmeber,-200,left,200,right,0.04,cross,None,m,True,0.358397960663
Paulina,23,weiblich,Gryffindor,das,Pulp Fiction,40,2,7,Geisel,negative,-200,right,Projektor,200,right,-200,left,0.04,cross,None,x,True,0.348126888275
Paulina,23,weiblich,Gryffindor,das,Pulp Fiction,40,2,8,Lachen,positive,-200,right,Dienstag,200,right,-200,left,0.04,cross,None,x,True,0.474391937256
Paulina,23,weiblich,Gryffindor,das,Pulp Fiction,40,2,9,Unfall,negative,-200,right,Flur,200,right,200,right,1,cross,None,m,True,0.23380112648
Paulina,23,weiblich,Gryffindor,das,Pulp Fiction,40,2,10,Zufriedenheit,positive,-200,right,Bus,200,right,-200,left,0.04,cross,None,x,True,0.323364019394
Paulina,23,weiblich,Gryffindor,das,Pulp Fiction,40,2,11,Leid,negative,200,right,Pullover,-200,left,200,right,0.04,cross,None,m,True,0.250281095505
Paulina,23,weiblich,Gryffindor,das,Pulp Fiction,40,2,12,Terror,negative,-200,right,Park,200,right,-200,left,0.04,cross,None,x,True,0.328033924103
Paulina,23,weiblich,Gryffindor,das,Pulp Fiction,40,2,13,Droge,negative,200,right,Geburtstag,-200,left,200,right,1,cross,None,m,True,0.264098167419
Paulina,23,weiblich,Gryffindor,das,Pulp Fiction,40,2,14,Schatz,positive,200,right,Zucker,-200,left,200,right,0.04,cross,None,m,True,0.311861038208
Paulina,23,weiblich,Gryffindor,das,Pulp Fiction,40,2,15,Kraft,positive,-200,right,Fernseher,200,right,-200,left,1,cross,None,x,True,0.36286687851
Paulina,23,weiblich,Gryffindor,das,Pulp Fiction,40,2,16,Heimweh,negative,200,right,Oktober,-200,left,-200,left,1,cross,None,m,False,0.239246845245
Paulina,23,weiblich,Gryffindor,das,Pulp Fiction,40,2,17,Treue,positive,-200,right,Baum,200,right,200,right,0.04,cross,None,m,True,0.315470933914
Paulina,23,weiblich,Gryffindor,das,Pulp Fiction,40,2,18,Horror,negative,200,right,Dose,-200,left,200,right,1,cross,None,m,True,0.321372032166
Paulina,23,weiblich,Gryffindor,das,Pulp Fiction,40,2,19,Beliebtheit,positive,-200,right,April,200,right,200,right,0.04,cross,None,m,True,0.291444063187
Paulina,23,weiblich,Gryffindor,das,Pulp Fiction,40,2,20,Unterstützung,positive,200,right,Zuschauer,-200,left,200,right,0.04,cross,None,m,True,0.318737030029
Paulina,23,weiblich,Gryffindor,das,Pulp Fiction,40,2,21,Lebensfreude,positive,-200,right,März,200,right,200,right,0.04,cross,None,m,True,0.299465894699
Paulina,23,weiblich,Gryffindor,das,Pulp Fiction,40,2,22,Genuss,positive,-200,right,Wagen,200,right,-200,left,1,cross,None,x,True,0.367477893829
Paulina,23,weiblich,Gryffindor,das,Pulp Fiction,40,2,23,Vergnügen,positive,-200,right,Bank,200,right,-200,left,1,cross,None,x,True,0.358476877213
Paulina,23,weiblich,Gryffindor,das,Pulp Fiction,40,2,24,Erfolg,positive,-200,right,Zug,200,right,-200,left,0.04,cross,None,x,True,0.403727054596
Paulina,23,weiblich,Gryffindor,das,Pulp Fiction,40,3,0,Gefängnis,negative,-200,right,Apotheke,200,right,-200,left,0.04,hole,right,x,True,0.336246013641
Paulina,23,weiblich,Gryffindor,das,Pulp Fiction,40,3,1,Kostbarkeit,positive,-200,right,Kleiderhaken,200,right,200,right,1,hole,left,m,True,0.309832811356
Paulina,23,weiblich,Gryffindor,das,Pulp Fiction,40,3,2,Schmerz,negative,-200,right,Adresse,200,right,200,right,1,hole,right,m,True,0.464149951935
Paulina,23,weiblich,Gryffindor,das,Pulp Fiction,40,3,3,Gesundheit,positive,200,right,Kellner,-200,left,200,right,0.04,hole,left,m,True,0.592100143433
Paulina,23,weiblich,Gryffindor,das,Pulp Fiction,40,3,4,Hilfsbereitschaft,positive,-200,right,Bildschirm,200,right,200,right,1,hole,left,m,True,0.567558050156
Paulina,23,weiblich,Gryffindor,das,Pulp Fiction,40,3,5,Rache,negative,-200,right,Brille,200,right,200,right,1,hole,left,m,True,1.09479999542
Paulina,23,weiblich,Gryffindor,das,Pulp Fiction,40,3,6,Schrei,negative,-200,right,November,200,right,-200,left,1,hole,right,x,True,0.738884925842
Paulina,23,weiblich,Gryffindor,das,Pulp Fiction,40,3,7,Mord,negative,-200,right,Januar,200,right,-200,left,0.04,hole,right,x,True,0.572355985641
Paulina,23,weiblich,Gryffindor,das,Pulp Fiction,40,3,8,Gestank,negative,-200,right,Kugelschrieber,200,right,200,right,1,hole,left,m,True,0.630738973618
Paulina,23,weiblich,Gryffindor,das,Pulp Fiction,40,3,9,Koma,negative,-200,right,Februar,200,right,-200,left,0.04,hole,left,x,True,0.532522916794
Paulina,23,weiblich,Gryffindor,das,Pulp Fiction,40,3,10,Dummheit,negative,-200,right,Teppich,200,right,-200,left,0.04,hole,left,x,True,0.802326202393
Paulina,23,weiblich,Gryffindor,das,Pulp Fiction,40,3,11,Folter,negative,-200,right,Juli,200,right,-200,left,1,hole,right,x,True,0.794948101044
Paulina,23,weiblich,Gryffindor,das,Pulp Fiction,40,3,12,Hässlichkeit,negative,-200,right,Dusche,200,right,200,right,1,hole,left,m,True,0.529345989227
Paulina,23,weiblich,Gryffindor,das,Pulp Fiction,40,3,13,Schrott,negative,200,right,Beschreibung,-200,left,200,right,0.04,hole,right,m,True,0.315416097641
Paulina,23,weiblich,Gryffindor,das,Pulp Fiction,40,3,14,Wut,negative,-200,right,Rock,200,right,200,right,1,hole,right,m,True,0.375761032104
Paulina,23,weiblich,Gryffindor,das,Pulp Fiction,40,3,15,Einsamkeit,negative,200,right,Pass,-200,left,-200,left,0.04,hole,right,x,True,0.27520108223
Paulina,23,weiblich,Gryffindor,das,Pulp Fiction,40,3,16,Schock,negative,200,right,Apfelsine,-200,left,200,right,0.04,hole,right,m,True,0.288228034973
Paulina,23,weiblich,Gryffindor,das,Pulp Fiction,40,3,17,Angst,negative,-200,right,Sessel,200,right,200,right,1,hole,right,m,True,0.289701938629
Paulina,23,weiblich,Gryffindor,das,Pulp Fiction,40,3,18,Pessimismus,negative,200,right,RadiergummI,-200,left,-200,left,0.04,hole,right,x,True,0.305804014206
Paulina,23,weiblich,Gryffindor,das,Pulp Fiction,40,3,19,Sucht,negative,-200,right,Wind,200,right,-200,left,1,hole,right,x,True,0.331575155258
Paulina,23,weiblich,Gryffindor,das,Pulp Fiction,40,3,20,Totschlag,negative,200,right,Stuhl,-200,left,200,right,1,hole,right,m,True,0.290910005569
Paulina,23,weiblich,Gryffindor,das,Pulp Fiction,40,3,21,Neid,negative,200,right,Tee,-200,left,-200,left,0.04,hole,left,x,True,0.447246074677
Paulina,23,weiblich,Gryffindor,das,Pulp Fiction,40,3,22,Müll,negative,200,right,Schinken,-200,left,200,right,0.04,hole,right,m,True,0.307456016541
Paulina,23,weiblich,Gryffindor,das,Pulp Fiction,40,3,23,Regen,negative,200,right,Schlüssel,-200,left,-200,left,1,hole,left,x,True,0.387380123138
Paulina,23,weiblich,Gryffindor,das,Pulp Fiction,40,3,24,Panik,negative,200,right,Fuß,-200,left,200,right,1,hole,left,m,True,0.307518959045
