subject,age,sex,house,nutella,movie,temperature,block,trial,cue_cond,cue_valence,cue_cond_pos,cue_cond_side,cue_neutral,cue_neutral_pos,cue_neutral_side,target_pos,target_side,duration,fixation,fixation_direction,response,correct,rt
RM,25,männlich,Gryffindor,das,Pulp Fiction,35,0,0,Hilfsbereitschaft,positive,200,right,Kellner,-200,left,-200,left,1,cross,None,x,True,0.352195978165
RM,25,männlich,Gryffindor,das,Pulp Fiction,35,0,1,Verletzung,negative,-200,right,Drucker,200,right,200,right,0.04,cross,None,m,True,0.400898933411
RM,25,männlich,Gryffindor,das,Pulp Fiction,35,0,2,Trauer,negative,-200,right,Bestellung,200,right,200,right,1,cross,None,m,True,0.28887796402
RM,25,männlich,Gryffindor,das,Pulp Fiction,35,0,3,Beliebtheit,positive,200,right,Stuhl,-200,left,-200,left,1,cross,None,m,False,0.436019897461
RM,25,männlich,Gryffindor,das,Pulp Fiction,35,0,4,Tod,negative,200,right,Fußboden,-200,left,-200,left,0.04,cross,None,x,True,0.447657108307
RM,25,männlich,Gryffindor,das,Pulp Fiction,35,0,5,Freundschaft,positive,200,right,Eintrittskarte,-200,left,200,right,1,cross,None,m,True,0.272505044937
RM,25,männlich,Gryffindor,das,Pulp Fiction,35,0,6,Geisel,negative,-200,right,Tisch,200,right,-200,left,1,cross,None,x,True,0.276871919632
RM,25,männlich,Gryffindor,das,Pulp Fiction,35,0,7,Wunde,negative,-200,right,Rock,200,right,-200,left,1,cross,None,x,True,0.350929021835
RM,25,männlich,Gryffindor,das,Pulp Fiction,35,0,8,Trennung,negative,-200,right,Monitor,200,right,200,right,1,cross,None,m,True,0.313266038895
RM,25,männlich,Gryffindor,das,Pulp Fiction,35,0,9,Panik,negative,-200,right,Cola,200,right,200,right,0.04,cross,None,m,True,0.392535209656
RM,25,männlich,Gryffindor,das,Pulp Fiction,35,0,10,Attraktivität,positive,-200,right,Bankkarte,200,right,200,right,0.04,cross,None,m,True,0.407782077789
RM,25,männlich,Gryffindor,das,Pulp Fiction,35,0,11,Belohnung,positive,-200,right,November,200,right,200,right,0.04,cross,None,m,True,0.394311904907
RM,25,männlich,Gryffindor,das,Pulp Fiction,35,0,12,Harmonie,positive,200,right,Füller,-200,left,200,right,0.04,cross,None,m,True,0.367323160172
RM,25,männlich,Gryffindor,das,Pulp Fiction,35,0,13,Leidenschaft,positive,-200,right,August,200,right,-200,left,1,cross,None,x,True,0.265549182892
RM,25,männlich,Gryffindor,das,Pulp Fiction,35,0,14,Höflichkeit,positive,200,right,Diskette,-200,left,-200,left,0.04,cross,None,x,True,0.380581855774
RM,25,männlich,Gryffindor,das,Pulp Fiction,35,0,15,Kraft,positive,200,right,Dolmetscherin,-200,left,200,right,1,cross,None,m,True,0.339559078217
RM,25,männlich,Gryffindor,das,Pulp Fiction,35,0,16,Droge,negative,200,right,April,-200,left,-200,left,0.04,cross,None,x,True,0.406263113022
RM,25,männlich,Gryffindor,das,Pulp Fiction,35,0,17,Leid,negative,200,right,Einwohner,-200,left,200,right,0.04,cross,None,m,True,0.332695007324
RM,25,männlich,Gryffindor,das,Pulp Fiction,35,0,18,Gestank,negative,-200,right,Pass,200,right,-200,left,1,cross,None,x,True,0.295234203339
RM,25,männlich,Gryffindor,das,Pulp Fiction,35,0,19,Heimweh,negative,200,right,März,-200,left,200,right,1,cross,None,m,True,0.372282028198
RM,25,männlich,Gryffindor,das,Pulp Fiction,35,0,20,Angst,negative,-200,right,Bibliothek,200,right,200,right,1,cross,None,m,True,0.462236881256
RM,25,männlich,Gryffindor,das,Pulp Fiction,35,0,21,Totschlag,negative,200,right,Geburtstag,-200,left,-200,left,1,cross,None,x,True,0.298939943314
RM,25,männlich,Gryffindor,das,Pulp Fiction,35,0,22,Krieg,negative,200,right,Baum,-200,left,-200,left,1,cross,None,x,True,0.295852899551
RM,25,männlich,Gryffindor,das,Pulp Fiction,35,0,23,Feind,negative,200,right,Computer,-200,left,-200,left,0.04,cross,None,x,True,0.369879961014
RM,25,männlich,Gryffindor,das,Pulp Fiction,35,0,24,Schrott,negative,200,right,Herr,-200,left,200,right,1,cross,None,m,True,0.34241604805
RM,25,männlich,Gryffindor,das,Pulp Fiction,35,1,0,Neid,negative,-200,right,Fernseher,200,right,-200,left,1,hole,right,x,True,0.398901939392
RM,25,männlich,Gryffindor,das,Pulp Fiction,35,1,1,Pessimismus,negative,-200,right,Septmeber,200,right,200,right,0.04,hole,right,m,True,0.315723896027
RM,25,männlich,Gryffindor,das,Pulp Fiction,35,1,2,Horror,negative,-200,right,Flur,200,right,-200,left,1,hole,left,x,True,0.359975099564
RM,25,männlich,Gryffindor,das,Pulp Fiction,35,1,3,Stärke,positive,200,right,Teppich,-200,left,200,right,1,hole,left,m,True,0.333900928497
RM,25,männlich,Gryffindor,das,Pulp Fiction,35,1,4,Frieden,positive,-200,right,Beschreibung,200,right,-200,left,1,hole,left,x,True,0.359218120575
RM,25,männlich,Gryffindor,das,Pulp Fiction,35,1,5,Bewunderung,positive,200,right,Tag,-200,left,-200,left,0.04,hole,left,x,True,0.347034931183
RM,25,männlich,Gryffindor,das,Pulp Fiction,35,1,6,Zufriedenheit,positive,200,right,Februar,-200,left,200,right,0.04,hole,left,m,True,0.344117879868
RM,25,männlich,Gryffindor,das,Pulp Fiction,35,1,7,Liebe,positive,200,right,Schlüssel,-200,left,200,right,1,hole,right,m,True,0.31579709053
RM,25,männlich,Gryffindor,das,Pulp Fiction,35,1,8,Dankbarkeit,positive,-200,right,Anruf,200,right,-200,left,0.04,hole,left,x,True,0.370256900787
RM,25,männlich,Gryffindor,das,Pulp Fiction,35,1,9,Sturz,negative,200,right,Hafen,-200,left,200,right,1,hole,left,m,True,0.364257097244
RM,25,männlich,Gryffindor,das,Pulp Fiction,35,1,10,Frohsinn,positive,-200,right,Name,200,right,200,right,1,hole,right,m,True,0.381275177002
RM,25,männlich,Gryffindor,das,Pulp Fiction,35,1,11,Freiheit,positive,-200,right,Kaffee,200,right,200,right,0.04,hole,left,m,True,0.39718413353
RM,25,männlich,Gryffindor,das,Pulp Fiction,35,1,12,Ehrlichkeit,positive,-200,right,Kunde,200,right,-200,left,1,hole,right,x,True,0.300285100937
RM,25,männlich,Gryffindor,das,Pulp Fiction,35,1,13,Vergnügen,positive,-200,right,Mai,200,right,-200,left,0.04,hole,left,x,True,0.404432058334
RM,25,männlich,Gryffindor,das,Pulp Fiction,35,1,14,Unfall,negative,200,right,Löffel,-200,left,200,right,1,hole,left,m,True,0.337793827057
RM,25,männlich,Gryffindor,das,Pulp Fiction,35,1,15,Gerechtigkeit,positive,200,right,Marktplatz,-200,left,-200,left,0.04,hole,left,x,True,0.481560945511
RM,25,männlich,Gryffindor,das,Pulp Fiction,35,1,16,Rücksichtnahme,positive,-200,right,Schrank,200,right,-200,left,0.04,hole,right,x,True,0.414786100388
RM,25,männlich,Gryffindor,das,Pulp Fiction,35,1,17,Dummheit,negative,-200,right,Dezember,200,right,-200,left,1,hole,right,x,True,0.352447986603
RM,25,männlich,Gryffindor,das,Pulp Fiction,35,1,18,Depression,negative,200,right,Anzug,-200,left,-200,left,0.04,hole,right,x,True,0.500439882278
RM,25,männlich,Gryffindor,das,Pulp Fiction,35,1,19,Schrei,negative,-200,right,Sessel,200,right,200,right,0.04,hole,right,m,True,0.334278106689
RM,25,männlich,Gryffindor,das,Pulp Fiction,35,1,20,Treue,positive,-200,right,Locher,200,right,-200,left,1,hole,right,x,True,0.310563087463
RM,25,männlich,Gryffindor,das,Pulp Fiction,35,1,21,Einsamkeit,negative,-200,right,Finger,200,right,-200,left,1,hole,left,x,True,0.345968008041
RM,25,männlich,Gryffindor,das,Pulp Fiction,35,1,22,Lachen,positive,-200,right,Zug,200,right,-200,left,1,hole,right,x,True,0.360745191574
RM,25,männlich,Gryffindor,das,Pulp Fiction,35,1,23,Schleim,negative,200,right,Wagen,-200,left,-200,left,0.04,hole,right,x,True,0.367055177689
RM,25,männlich,Gryffindor,das,Pulp Fiction,35,1,24,Schönheit,positive,-200,right,Eile,200,right,200,right,0.04,hole,right,m,True,0.398415803909
RM,25,männlich,Gryffindor,das,Pulp Fiction,35,2,0,Spaß,positive,200,right,Passant,-200,left,-200,left,1,cross,None,x,True,0.563086986542
RM,25,männlich,Gryffindor,das,Pulp Fiction,35,2,1,Entspannung,positive,200,right,Balkon,-200,left,200,right,0.04,cross,None,m,True,0.353037118912
RM,25,männlich,Gryffindor,das,Pulp Fiction,35,2,2,Hässlichkeit,negative,200,right,Strumpf,-200,left,-200,left,1,cross,None,x,True,1.57270503044
RM,25,männlich,Gryffindor,das,Pulp Fiction,35,2,3,Anerkennung,positive,-200,right,Decke,200,right,200,right,1,cross,None,m,True,0.355870008469
RM,25,männlich,Gryffindor,das,Pulp Fiction,35,2,4,Verzweiflung,negative,-200,right,Kakao,200,right,200,right,1,cross,None,m,True,0.316853046417
RM,25,männlich,Gryffindor,das,Pulp Fiction,35,2,5,Hass,negative,200,right,Brille,-200,left,-200,left,1,cross,None,m,False,0.37038898468
RM,25,männlich,Gryffindor,das,Pulp Fiction,35,2,6,Sucht,negative,200,right,Flughafen,-200,left,-200,left,1,cross,None,x,True,0.291055202484
RM,25,männlich,Gryffindor,das,Pulp Fiction,35,2,7,Unterstützung,positive,200,right,Dusche,-200,left,-200,left,1,cross,None,x,True,0.310886144638
RM,25,männlich,Gryffindor,das,Pulp Fiction,35,2,8,Wohlstand,positive,-200,right,Berg,200,right,200,right,0.04,cross,None,m,True,0.349243164062
RM,25,männlich,Gryffindor,das,Pulp Fiction,35,2,9,Mord,negative,-200,right,Kleiderhaken,200,right,-200,left,0.04,cross,None,x,True,0.471871852875
RM,25,männlich,Gryffindor,das,Pulp Fiction,35,2,10,Unglück,negative,200,right,Oktober,-200,left,-200,left,0.04,cross,None,x,True,0.354377031326
RM,25,männlich,Gryffindor,das,Pulp Fiction,35,2,11,Gefängnis,negative,200,right,Zucker,-200,left,200,right,0.04,cross,None,m,True,0.336167097092
RM,25,männlich,Gryffindor,das,Pulp Fiction,35,2,12,Sicherheit,positive,-200,right,Dienstag,200,right,200,right,0.04,cross,None,m,True,0.370661973953
RM,25,männlich,Gryffindor,das,Pulp Fiction,35,2,13,Schmerz,negative,-200,right,Bus,200,right,200,right,1,cross,None,m,True,0.353891134262
RM,25,männlich,Gryffindor,das,Pulp Fiction,35,2,14,Schock,negative,-200,right,Supermarkt,200,right,200,right,0.04,cross,None,m,True,0.363481044769
RM,25,männlich,Gryffindor,das,Pulp Fiction,35,2,15,Reichtum,positive,-200,right,Projektor,200,right,-200,left,0.04,cross,None,x,True,0.37273311615
RM,25,männlich,Gryffindor,das,Pulp Fiction,35,2,16,Rache,negative,200,right,Bluse,-200,left,200,right,1,cross,None,m,True,0.3294069767
RM,25,männlich,Gryffindor,das,Pulp Fiction,35,2,17,Ekel,negative,-200,right,Adresse,200,right,-200,left,0.04,cross,None,x,True,0.550275802612
RM,25,männlich,Gryffindor,das,Pulp Fiction,35,2,18,Kostbarkeit,positive,200,right,Gast,-200,left,200,right,1,cross,None,m,True,0.314402103424
RM,25,männlich,Gryffindor,das,Pulp Fiction,35,2,19,Schatz,positive,200,right,Zuschauer,-200,left,200,right,1,cross,None,m,True,0.314126014709
RM,25,männlich,Gryffindor,das,Pulp Fiction,35,2,20,Erfolg,positive,200,right,Koch,-200,left,200,right,0.04,cross,None,m,True,0.412457942963
RM,25,männlich,Gryffindor,das,Pulp Fiction,35,2,21,Übelkeit,negative,200,right,Juli,-200,left,-200,left,1,cross,None,x,True,0.393182992935
RM,25,männlich,Gryffindor,das,Pulp Fiction,35,2,22,Optimismus,positive,-200,right,Tee,200,right,-200,left,0.04,cross,None,x,True,0.352725028992
RM,25,männlich,Gryffindor,das,Pulp Fiction,35,2,23,Lebensfreude,positive,-200,right,Januar,200,right,200,right,0.04,cross,None,m,True,0.5454890728
RM,25,männlich,Gryffindor,das,Pulp Fiction,35,2,24,Bombe,negative,200,right,Apotheke,-200,left,-200,left,1,cross,None,x,True,0.365085840225
RM,25,männlich,Gryffindor,das,Pulp Fiction,35,3,0,Zuverlässigkeit,positive,-200,right,Park,200,right,200,right,0.04,hole,right,m,True,0.382456064224
RM,25,männlich,Gryffindor,das,Pulp Fiction,35,3,1,Wut,negative,200,right,Keller,-200,left,-200,left,0.04,hole,right,x,True,0.38089299202
RM,25,männlich,Gryffindor,das,Pulp Fiction,35,3,2,Solidarität,positive,-200,right,Fahrschein,200,right,200,right,1,hole,right,m,True,0.309918880463
RM,25,männlich,Gryffindor,das,Pulp Fiction,35,3,3,Regen,negative,-200,right,Pullover,200,right,-200,left,1,hole,right,x,True,0.335114002228
RM,25,männlich,Gryffindor,das,Pulp Fiction,35,3,4,Qual,negative,-200,right,Laden,200,right,200,right,0.04,hole,right,m,True,0.652225017548
RM,25,männlich,Gryffindor,das,Pulp Fiction,35,3,5,Koma,negative,-200,right,Ausweis,200,right,200,right,0.04,hole,left,m,True,0.354799032211
RM,25,männlich,Gryffindor,das,Pulp Fiction,35,3,6,Gesundheit,positive,-200,right,Platz,200,right,-200,left,0.04,hole,left,x,True,0.384610891342
RM,25,männlich,Gryffindor,das,Pulp Fiction,35,3,7,Anschlag,negative,-200,right,Bildschirm,200,right,200,right,1,hole,left,m,True,0.347772836685
RM,25,männlich,Gryffindor,das,Pulp Fiction,35,3,8,Verehrung,positive,200,right,Bahnhof,-200,left,-200,left,0.04,hole,left,x,True,0.361268997192
RM,25,männlich,Gryffindor,das,Pulp Fiction,35,3,9,Folter,negative,200,right,Apfelsine,-200,left,-200,left,1,hole,right,x,True,0.271071910858
RM,25,männlich,Gryffindor,das,Pulp Fiction,35,3,10,Waffe,negative,200,right,Hut,-200,left,-200,left,0.04,hole,right,x,True,0.403519868851
RM,25,männlich,Gryffindor,das,Pulp Fiction,35,3,11,Terror,negative,200,right,Bedienung,-200,left,200,right,0.04,hole,right,m,True,0.415003061295
RM,25,männlich,Gryffindor,das,Pulp Fiction,35,3,12,Eleganz,positive,200,right,Zeiger,-200,left,-200,left,1,hole,left,x,True,0.298882007599
RM,25,männlich,Gryffindor,das,Pulp Fiction,35,3,13,Genuss,positive,-200,right,RadiergummI,200,right,200,right,1,hole,left,m,True,0.32731294632
RM,25,männlich,Gryffindor,das,Pulp Fiction,35,3,14,Wohlbefinden,positive,200,right,Markt,-200,left,200,right,0.04,hole,right,m,True,0.426326036453
RM,25,männlich,Gryffindor,das,Pulp Fiction,35,3,15,Müll,negative,-200,right,Fuß,200,right,-200,left,1,hole,right,x,True,0.296648979187
RM,25,männlich,Gryffindor,das,Pulp Fiction,35,3,16,Bereicherung,positive,200,right,Juni,-200,left,-200,left,0.04,hole,right,x,True,0.473969936371
RM,25,männlich,Gryffindor,das,Pulp Fiction,35,3,17,Armut,negative,200,right,Schinken,-200,left,-200,left,0.04,hole,right,x,True,0.376143932343
RM,25,männlich,Gryffindor,das,Pulp Fiction,35,3,18,Krankheit,negative,200,right,Bank,-200,left,-200,left,0.04,hole,left,x,True,0.414065122604
RM,25,männlich,Gryffindor,das,Pulp Fiction,35,3,19,Herzlichkeit,positive,200,right,Garten,-200,left,-200,left,0.04,hole,right,x,True,0.420147895813
RM,25,männlich,Gryffindor,das,Pulp Fiction,35,3,20,Glück,positive,-200,right,Wind,200,right,-200,left,0.04,hole,left,x,True,0.388600826263
RM,25,männlich,Gryffindor,das,Pulp Fiction,35,3,21,Mut,positive,200,right,Apfel,-200,left,200,right,0.04,hole,left,m,True,0.499439954758
RM,25,männlich,Gryffindor,das,Pulp Fiction,35,3,22,Tapferkeit,positive,-200,right,Kugelschrieber,200,right,200,right,0.04,hole,right,m,True,0.414981126785
RM,25,männlich,Gryffindor,das,Pulp Fiction,35,3,23,Sympathie,positive,200,right,Dose,-200,left,-200,left,1,hole,right,x,True,0.314454078674
RM,25,männlich,Gryffindor,das,Pulp Fiction,35,3,24,Geschenk,positive,-200,right,Brücke,200,right,200,right,0.04,hole,left,m,True,0.487122058868
