subject,age,sex,house,nutella,movie,temperature,block,trial,cue_cond,cue_valence,cue_cond_pos,cue_cond_side,cue_neutral,cue_neutral_pos,cue_neutral_side,target_pos,target_side,duration,fixation,fixation_direction,response,correct,rt
SL,35,weiblich,Gryffindor,die,Pulp Fiction,39,0,0,Krieg,negative,200,right,Bildschirm,-200,left,-200,left,1,cross,None,x,True,0.345410108566
SL,35,weiblich,Gryffindor,die,Pulp Fiction,39,0,1,Regen,negative,200,right,Anruf,-200,left,-200,left,1,cross,None,x,True,0.34273982048
SL,35,weiblich,Gryffindor,die,Pulp Fiction,39,0,2,Anerkennung,positive,-200,right,Monitor,200,right,-200,left,1,cross,None,x,True,0.371854066849
SL,35,weiblich,Gryffindor,die,Pulp Fiction,39,0,3,Spaß,positive,-200,right,Dezember,200,right,-200,left,1,cross,None,x,True,0.415051937103
SL,35,weiblich,Gryffindor,die,Pulp Fiction,39,0,4,Schleim,negative,-200,right,Kunde,200,right,-200,left,0.04,cross,None,x,True,0.414765834808
SL,35,weiblich,Gryffindor,die,Pulp Fiction,39,0,5,Lebensfreude,positive,200,right,Park,-200,left,200,right,1,cross,None,m,True,0.322553873062
SL,35,weiblich,Gryffindor,die,Pulp Fiction,39,0,6,Wunde,negative,-200,right,Dusche,200,right,-200,left,1,cross,None,x,True,0.357955932617
SL,35,weiblich,Gryffindor,die,Pulp Fiction,39,0,7,Rache,negative,-200,right,Zuschauer,200,right,-200,left,1,cross,None,x,True,0.469820022583
SL,35,weiblich,Gryffindor,die,Pulp Fiction,39,0,8,Totschlag,negative,200,right,Kugelschrieber,-200,left,-200,left,1,cross,None,m,False,0.321943998337
SL,35,weiblich,Gryffindor,die,Pulp Fiction,39,0,9,Krankheit,negative,200,right,Cola,-200,left,-200,left,1,cross,None,x,True,0.358804941177
SL,35,weiblich,Gryffindor,die,Pulp Fiction,39,0,10,Optimismus,positive,200,right,Marktplatz,-200,left,200,right,1,cross,None,m,True,0.313556909561
SL,35,weiblich,Gryffindor,die,Pulp Fiction,39,0,11,Sicherheit,positive,-200,right,Herr,200,right,-200,left,1,cross,None,x,True,0.33561706543
SL,35,weiblich,Gryffindor,die,Pulp Fiction,39,0,12,Entspannung,positive,200,right,Sessel,-200,left,200,right,0.04,cross,None,m,True,0.459051847458
SL,35,weiblich,Gryffindor,die,Pulp Fiction,39,0,13,Freiheit,positive,200,right,Wind,-200,left,200,right,0.04,cross,None,m,True,0.48849606514
SL,35,weiblich,Gryffindor,die,Pulp Fiction,39,0,14,Schock,negative,200,right,Juli,-200,left,200,right,1,cross,None,m,True,0.325932025909
SL,35,weiblich,Gryffindor,die,Pulp Fiction,39,0,15,Mord,negative,-200,right,Bibliothek,200,right,-200,left,1,cross,None,x,True,0.317139148712
SL,35,weiblich,Gryffindor,die,Pulp Fiction,39,0,16,Angst,negative,-200,right,Rock,200,right,-200,left,0.04,cross,None,x,True,0.457823038101
SL,35,weiblich,Gryffindor,die,Pulp Fiction,39,0,17,Unterstützung,positive,200,right,Einwohner,-200,left,200,right,1,cross,None,m,True,0.303511142731
SL,35,weiblich,Gryffindor,die,Pulp Fiction,39,0,18,Rücksichtnahme,positive,-200,right,Kleiderhaken,200,right,-200,left,0.04,cross,None,x,True,0.39892911911
SL,35,weiblich,Gryffindor,die,Pulp Fiction,39,0,19,Sympathie,positive,-200,right,RadiergummI,200,right,200,right,0.04,cross,None,m,True,0.368104219437
SL,35,weiblich,Gryffindor,die,Pulp Fiction,39,0,20,Feind,negative,-200,right,Finger,200,right,-200,left,1,cross,None,x,True,0.358592987061
SL,35,weiblich,Gryffindor,die,Pulp Fiction,39,0,21,Pessimismus,negative,-200,right,April,200,right,-200,left,1,cross,None,x,True,0.375646114349
SL,35,weiblich,Gryffindor,die,Pulp Fiction,39,0,22,Folter,negative,200,right,Januar,-200,left,200,right,0.04,cross,None,m,True,0.4333319664
SL,35,weiblich,Gryffindor,die,Pulp Fiction,39,0,23,Glück,positive,-200,right,Mai,200,right,-200,left,0.04,cross,None,x,True,0.381398916245
SL,35,weiblich,Gryffindor,die,Pulp Fiction,39,0,24,Herzlichkeit,positive,200,right,Markt,-200,left,-200,left,0.04,cross,None,x,True,0.397408008575
SL,35,weiblich,Gryffindor,die,Pulp Fiction,39,1,0,Bereicherung,positive,-200,right,Adresse,200,right,-200,left,0.04,hole,left,x,True,0.398283004761
SL,35,weiblich,Gryffindor,die,Pulp Fiction,39,1,1,Geschenk,positive,-200,right,Flughafen,200,right,-200,left,0.04,hole,right,x,True,0.39394402504
SL,35,weiblich,Gryffindor,die,Pulp Fiction,39,1,2,Gestank,negative,-200,right,Pullover,200,right,-200,left,0.04,hole,right,x,True,0.415987968445
SL,35,weiblich,Gryffindor,die,Pulp Fiction,39,1,3,Belohnung,positive,200,right,Bluse,-200,left,-200,left,0.04,hole,right,x,True,0.351058006287
SL,35,weiblich,Gryffindor,die,Pulp Fiction,39,1,4,Freundschaft,positive,-200,right,November,200,right,200,right,1,hole,left,m,True,0.356263160706
SL,35,weiblich,Gryffindor,die,Pulp Fiction,39,1,5,Höflichkeit,positive,200,right,Brücke,-200,left,200,right,1,hole,right,m,True,0.414124011993
SL,35,weiblich,Gryffindor,die,Pulp Fiction,39,1,6,Attraktivität,positive,-200,right,Ausweis,200,right,200,right,1,hole,left,m,True,0.362967967987
SL,35,weiblich,Gryffindor,die,Pulp Fiction,39,1,7,Terror,negative,-200,right,Apfel,200,right,-200,left,1,hole,right,x,True,0.333758115768
SL,35,weiblich,Gryffindor,die,Pulp Fiction,39,1,8,Dummheit,negative,200,right,Baum,-200,left,-200,left,1,hole,right,x,True,0.318073987961
SL,35,weiblich,Gryffindor,die,Pulp Fiction,39,1,9,Hass,negative,200,right,Bahnhof,-200,left,200,right,1,hole,right,m,True,0.325316905975
SL,35,weiblich,Gryffindor,die,Pulp Fiction,39,1,10,Mut,positive,200,right,Bestellung,-200,left,200,right,1,hole,right,m,True,0.350382804871
SL,35,weiblich,Gryffindor,die,Pulp Fiction,39,1,11,Wohlstand,positive,200,right,Koch,-200,left,-200,left,0.04,hole,right,x,True,0.396928071976
SL,35,weiblich,Gryffindor,die,Pulp Fiction,39,1,12,Trennung,negative,-200,right,Pass,200,right,-200,left,0.04,hole,right,x,True,0.389171123505
SL,35,weiblich,Gryffindor,die,Pulp Fiction,39,1,13,Unglück,negative,-200,right,Fußboden,200,right,200,right,0.04,hole,left,m,True,0.354301214218
SL,35,weiblich,Gryffindor,die,Pulp Fiction,39,1,14,Reichtum,positive,200,right,Dolmetscherin,-200,left,-200,left,0.04,hole,left,x,True,0.385849952698
SL,35,weiblich,Gryffindor,die,Pulp Fiction,39,1,15,Schrott,negative,200,right,Fahrschein,-200,left,200,right,1,hole,left,m,True,0.335531949997
SL,35,weiblich,Gryffindor,die,Pulp Fiction,39,1,16,Tapferkeit,positive,-200,right,Laden,200,right,200,right,0.04,hole,left,m,True,0.408283948898
SL,35,weiblich,Gryffindor,die,Pulp Fiction,39,1,17,Armut,negative,-200,right,Zug,200,right,-200,left,1,hole,left,x,True,0.336211919785
SL,35,weiblich,Gryffindor,die,Pulp Fiction,39,1,18,Frieden,positive,-200,right,Diskette,200,right,-200,left,1,hole,left,x,True,0.323399066925
SL,35,weiblich,Gryffindor,die,Pulp Fiction,39,1,19,Gesundheit,positive,200,right,Tag,-200,left,200,right,0.04,hole,right,m,True,0.431638002396
SL,35,weiblich,Gryffindor,die,Pulp Fiction,39,1,20,Schmerz,negative,200,right,Kaffee,-200,left,200,right,1,hole,left,m,True,0.337013959885
SL,35,weiblich,Gryffindor,die,Pulp Fiction,39,1,21,Beliebtheit,positive,-200,right,Strumpf,200,right,-200,left,0.04,hole,left,x,True,0.332170009613
SL,35,weiblich,Gryffindor,die,Pulp Fiction,39,1,22,Heimweh,negative,200,right,Löffel,-200,left,-200,left,0.04,hole,left,x,True,0.337214946747
SL,35,weiblich,Gryffindor,die,Pulp Fiction,39,1,23,Kraft,positive,200,right,Supermarkt,-200,left,-200,left,1,hole,left,x,True,0.357733011246
SL,35,weiblich,Gryffindor,die,Pulp Fiction,39,1,24,Sturz,negative,200,right,Oktober,-200,left,200,right,0.04,hole,left,m,True,0.329357862473
SL,35,weiblich,Gryffindor,die,Pulp Fiction,39,2,0,Panik,negative,200,right,Juni,-200,left,200,right,1,cross,None,m,True,0.316481113434
SL,35,weiblich,Gryffindor,die,Pulp Fiction,39,2,1,Genuss,positive,200,right,Bank,-200,left,-200,left,0.04,cross,None,x,True,0.441316127777
SL,35,weiblich,Gryffindor,die,Pulp Fiction,39,2,2,Qual,negative,200,right,Stuhl,-200,left,200,right,0.04,cross,None,m,True,0.358636856079
SL,35,weiblich,Gryffindor,die,Pulp Fiction,39,2,3,Kostbarkeit,positive,200,right,Garten,-200,left,200,right,0.04,cross,None,m,True,0.358903884888
SL,35,weiblich,Gryffindor,die,Pulp Fiction,39,2,4,Schatz,positive,-200,right,Bus,200,right,200,right,0.04,cross,None,m,True,0.332001924515
SL,35,weiblich,Gryffindor,die,Pulp Fiction,39,2,5,Koma,negative,200,right,Eile,-200,left,-200,left,1,cross,None,x,True,0.323261976242
SL,35,weiblich,Gryffindor,die,Pulp Fiction,39,2,6,Stärke,positive,200,right,Wagen,-200,left,200,right,1,cross,None,m,True,0.30898809433
SL,35,weiblich,Gryffindor,die,Pulp Fiction,39,2,7,Wut,negative,200,right,Berg,-200,left,200,right,0.04,cross,None,m,True,0.386450052261
SL,35,weiblich,Gryffindor,die,Pulp Fiction,39,2,8,Dankbarkeit,positive,-200,right,Kakao,200,right,-200,left,0.04,cross,None,x,True,0.352792978287
SL,35,weiblich,Gryffindor,die,Pulp Fiction,39,2,9,Horror,negative,200,right,Septmeber,-200,left,200,right,0.04,cross,None,m,True,0.357028007507
SL,35,weiblich,Gryffindor,die,Pulp Fiction,39,2,10,Harmonie,positive,200,right,Kellner,-200,left,-200,left,0.04,cross,None,x,True,0.335668802261
SL,35,weiblich,Gryffindor,die,Pulp Fiction,39,2,11,Verletzung,negative,-200,right,Platz,200,right,200,right,0.04,cross,None,m,True,0.306601047516
SL,35,weiblich,Gryffindor,die,Pulp Fiction,39,2,12,Schönheit,positive,-200,right,Eintrittskarte,200,right,-200,left,1,cross,None,x,True,0.326737880707
SL,35,weiblich,Gryffindor,die,Pulp Fiction,39,2,13,Zuverlässigkeit,positive,-200,right,Tisch,200,right,-200,left,1,cross,None,x,True,0.339803934097
SL,35,weiblich,Gryffindor,die,Pulp Fiction,39,2,14,Müll,negative,200,right,Zeiger,-200,left,-200,left,1,cross,None,x,True,0.357192993164
SL,35,weiblich,Gryffindor,die,Pulp Fiction,39,2,15,Hässlichkeit,negative,-200,right,Passant,200,right,200,right,1,cross,None,m,True,0.30255484581
SL,35,weiblich,Gryffindor,die,Pulp Fiction,39,2,16,Vergnügen,positive,200,right,Keller,-200,left,-200,left,0.04,cross,None,x,True,0.338500022888
SL,35,weiblich,Gryffindor,die,Pulp Fiction,39,2,17,Geisel,negative,200,right,Name,-200,left,200,right,0.04,cross,None,m,True,0.343632936478
SL,35,weiblich,Gryffindor,die,Pulp Fiction,39,2,18,Zufriedenheit,positive,-200,right,Teppich,200,right,-200,left,0.04,cross,None,x,True,0.3458070755
SL,35,weiblich,Gryffindor,die,Pulp Fiction,39,2,19,Anschlag,negative,200,right,Balkon,-200,left,200,right,1,cross,None,m,True,0.319574117661
SL,35,weiblich,Gryffindor,die,Pulp Fiction,39,2,20,Hilfsbereitschaft,positive,-200,right,Füller,200,right,-200,left,1,cross,None,x,True,0.303669929504
SL,35,weiblich,Gryffindor,die,Pulp Fiction,39,2,21,Verehrung,positive,200,right,Anzug,-200,left,200,right,0.04,cross,None,m,True,0.286967992783
SL,35,weiblich,Gryffindor,die,Pulp Fiction,39,2,22,Unfall,negative,200,right,August,-200,left,-200,left,0.04,cross,None,x,True,0.287260055542
SL,35,weiblich,Gryffindor,die,Pulp Fiction,39,2,23,Wohlbefinden,positive,-200,right,Flur,200,right,-200,left,1,cross,None,x,True,0.373554944992
SL,35,weiblich,Gryffindor,die,Pulp Fiction,39,2,24,Sucht,negative,-200,right,Bedienung,200,right,200,right,1,cross,None,m,True,0.303023099899
SL,35,weiblich,Gryffindor,die,Pulp Fiction,39,3,0,Treue,positive,-200,right,Schinken,200,right,200,right,0.04,hole,right,m,True,0.363600969315
SL,35,weiblich,Gryffindor,die,Pulp Fiction,39,3,1,Waffe,negative,200,right,Tee,-200,left,-200,left,0.04,hole,right,x,True,0.334882974625
SL,35,weiblich,Gryffindor,die,Pulp Fiction,39,3,2,Bewunderung,positive,-200,right,Apotheke,200,right,-200,left,1,hole,right,x,True,0.395370006561
SL,35,weiblich,Gryffindor,die,Pulp Fiction,39,3,3,Leidenschaft,positive,-200,right,Hafen,200,right,200,right,0.04,hole,left,m,True,0.294422149658
SL,35,weiblich,Gryffindor,die,Pulp Fiction,39,3,4,Leid,negative,200,right,Computer,-200,left,200,right,1,hole,right,m,True,0.298726081848
SL,35,weiblich,Gryffindor,die,Pulp Fiction,39,3,5,Trauer,negative,200,right,Drucker,-200,left,-200,left,0.04,hole,right,x,True,0.306613206863
SL,35,weiblich,Gryffindor,die,Pulp Fiction,39,3,6,Gefängnis,negative,200,right,Decke,-200,left,200,right,0.04,hole,right,m,True,0.300222873688
SL,35,weiblich,Gryffindor,die,Pulp Fiction,39,3,7,Eleganz,positive,200,right,Hut,-200,left,-200,left,0.04,hole,right,x,True,0.306216001511
SL,35,weiblich,Gryffindor,die,Pulp Fiction,39,3,8,Verzweiflung,negative,200,right,Gast,-200,left,200,right,0.04,hole,right,m,True,0.296938896179
SL,35,weiblich,Gryffindor,die,Pulp Fiction,39,3,9,Ekel,negative,-200,right,Schlüssel,200,right,200,right,1,hole,left,m,True,0.323348999023
SL,35,weiblich,Gryffindor,die,Pulp Fiction,39,3,10,Ehrlichkeit,positive,-200,right,Projektor,200,right,-200,left,1,hole,left,x,True,0.332710027695
SL,35,weiblich,Gryffindor,die,Pulp Fiction,39,3,11,Droge,negative,-200,right,Dose,200,right,200,right,1,hole,left,m,True,0.279847860336
SL,35,weiblich,Gryffindor,die,Pulp Fiction,39,3,12,Bombe,negative,200,right,Geburtstag,-200,left,200,right,0.04,hole,right,m,True,0.320237159729
SL,35,weiblich,Gryffindor,die,Pulp Fiction,39,3,13,Lachen,positive,200,right,Brille,-200,left,200,right,1,hole,right,m,True,0.334266901016
SL,35,weiblich,Gryffindor,die,Pulp Fiction,39,3,14,Liebe,positive,-200,right,Beschreibung,200,right,200,right,1,hole,right,m,True,0.326596021652
SL,35,weiblich,Gryffindor,die,Pulp Fiction,39,3,15,Neid,negative,200,right,Schrank,-200,left,200,right,0.04,hole,right,m,True,0.346492052078
SL,35,weiblich,Gryffindor,die,Pulp Fiction,39,3,16,Solidarität,positive,-200,right,Locher,200,right,200,right,1,hole,left,m,True,0.301692008972
SL,35,weiblich,Gryffindor,die,Pulp Fiction,39,3,17,Einsamkeit,negative,200,right,Fuß,-200,left,-200,left,0.04,hole,left,x,True,0.3847219944
SL,35,weiblich,Gryffindor,die,Pulp Fiction,39,3,18,Erfolg,positive,-200,right,Apfelsine,200,right,-200,left,1,hole,right,x,True,0.391845941544
SL,35,weiblich,Gryffindor,die,Pulp Fiction,39,3,19,Gerechtigkeit,positive,-200,right,Bankkarte,200,right,-200,left,0.04,hole,left,x,True,0.391042947769
SL,35,weiblich,Gryffindor,die,Pulp Fiction,39,3,20,Frohsinn,positive,200,right,Fernseher,-200,left,-200,left,0.04,hole,right,x,True,0.453200101852
SL,35,weiblich,Gryffindor,die,Pulp Fiction,39,3,21,Depression,negative,-200,right,Februar,200,right,-200,left,0.04,hole,right,x,True,0.308843135834
SL,35,weiblich,Gryffindor,die,Pulp Fiction,39,3,22,Schrei,negative,200,right,Dienstag,-200,left,200,right,1,hole,left,m,True,0.292713880539
SL,35,weiblich,Gryffindor,die,Pulp Fiction,39,3,23,Übelkeit,negative,200,right,März,-200,left,-200,left,1,hole,right,x,True,0.327064990997
SL,35,weiblich,Gryffindor,die,Pulp Fiction,39,3,24,Tod,negative,-200,right,Zucker,200,right,-200,left,1,hole,left,x,True,0.362895011902
