subject,age,sex,house,nutella,movie,temperature,block,trial,cue_cond,cue_valence,cue_cond_pos,cue_cond_side,cue_neutral,cue_neutral_pos,cue_neutral_side,target_pos,target_side,duration,fixation,fixation_direction,response,correct,rt
AS,22,männlich,Gryffindor,das,Der Pate,38,0,0,Bereicherung,positive,-200,right,Zeiger,200,right,-200,left,1,cross,None,x,True,0.486207962036
AS,22,männlich,Gryffindor,das,Der Pate,38,0,1,Müll,negative,-200,right,Anzug,200,right,-200,left,0.04,cross,None,x,True,0.655388832092
AS,22,männlich,Gryffindor,das,Der Pate,38,0,2,Kostbarkeit,positive,-200,right,Füller,200,right,-200,left,0.04,cross,None,x,True,0.578408956528
AS,22,männlich,Gryffindor,das,Der Pate,38,0,3,Feind,negative,200,right,Apfel,-200,left,200,right,1,cross,None,m,True,0.512787103653
AS,22,männlich,Gryffindor,das,Der Pate,38,0,4,Wohlstand,positive,-200,right,Finger,200,right,200,right,0.04,cross,None,m,True,0.571825027466
AS,22,männlich,Gryffindor,das,Der Pate,38,0,5,Gesundheit,positive,-200,right,Projektor,200,right,-200,left,1,cross,None,x,True,0.387979030609
AS,22,männlich,Gryffindor,das,Der Pate,38,0,6,Dummheit,negative,-200,right,Wind,200,right,-200,left,0.04,cross,None,x,True,0.366054058075
AS,22,männlich,Gryffindor,das,Der Pate,38,0,7,Anschlag,negative,200,right,Strumpf,-200,left,200,right,1,cross,None,m,True,0.325329065323
AS,22,männlich,Gryffindor,das,Der Pate,38,0,8,Schrott,negative,-200,right,Dienstag,200,right,-200,left,0.04,cross,None,x,True,0.35547709465
AS,22,männlich,Gryffindor,das,Der Pate,38,0,9,Rücksichtnahme,positive,200,right,Apfelsine,-200,left,200,right,0.04,cross,None,m,True,0.411461114883
AS,22,männlich,Gryffindor,das,Der Pate,38,0,10,Stärke,positive,200,right,Fußboden,-200,left,-200,left,0.04,cross,None,x,True,0.449037075043
AS,22,männlich,Gryffindor,das,Der Pate,38,0,11,Terror,negative,200,right,Supermarkt,-200,left,200,right,1,cross,None,m,True,0.289067983627
AS,22,männlich,Gryffindor,das,Der Pate,38,0,12,Treue,positive,-200,right,Geburtstag,200,right,200,right,1,cross,None,m,True,0.307241916656
AS,22,männlich,Gryffindor,das,Der Pate,38,0,13,Frohsinn,positive,200,right,Flughafen,-200,left,200,right,1,cross,None,m,True,0.401762008667
AS,22,männlich,Gryffindor,das,Der Pate,38,0,14,Mord,negative,200,right,Fernseher,-200,left,-200,left,0.04,cross,None,x,True,0.485171079636
AS,22,männlich,Gryffindor,das,Der Pate,38,0,15,Sicherheit,positive,200,right,Zug,-200,left,-200,left,0.04,cross,None,x,True,0.485707044601
AS,22,männlich,Gryffindor,das,Der Pate,38,0,16,Dankbarkeit,positive,-200,right,Septmeber,200,right,200,right,0.04,cross,None,m,True,0.391247987747
AS,22,männlich,Gryffindor,das,Der Pate,38,0,17,Sturz,negative,200,right,Bahnhof,-200,left,-200,left,0.04,cross,None,x,True,0.41061091423
AS,22,männlich,Gryffindor,das,Der Pate,38,0,18,Verletzung,negative,200,right,Mai,-200,left,-200,left,1,cross,None,x,True,0.579967975616
AS,22,männlich,Gryffindor,das,Der Pate,38,0,19,Leidenschaft,positive,200,right,Hafen,-200,left,200,right,1,cross,None,m,True,0.442198991776
AS,22,männlich,Gryffindor,das,Der Pate,38,0,20,Übelkeit,negative,-200,right,Dusche,200,right,-200,left,0.04,cross,None,x,True,0.359862089157
AS,22,männlich,Gryffindor,das,Der Pate,38,0,21,Herzlichkeit,positive,-200,right,Koch,200,right,-200,left,1,cross,None,x,True,0.454195022583
AS,22,männlich,Gryffindor,das,Der Pate,38,0,22,Harmonie,positive,200,right,Marktplatz,-200,left,-200,left,1,cross,None,x,True,0.396909952164
AS,22,männlich,Gryffindor,das,Der Pate,38,0,23,Geschenk,positive,200,right,Dose,-200,left,200,right,1,cross,None,m,True,0.344512939453
AS,22,männlich,Gryffindor,das,Der Pate,38,0,24,Erfolg,positive,-200,right,Park,200,right,200,right,0.04,cross,None,m,True,1.14066314697
AS,22,männlich,Gryffindor,das,Der Pate,38,1,0,Kraft,positive,-200,right,Kaffee,200,right,-200,left,0.04,hole,right,x,True,0.511862039566
AS,22,männlich,Gryffindor,das,Der Pate,38,1,1,Tapferkeit,positive,200,right,Computer,-200,left,200,right,0.04,hole,right,m,True,0.380887985229
AS,22,männlich,Gryffindor,das,Der Pate,38,1,2,Freiheit,positive,200,right,Schinken,-200,left,-200,left,0.04,hole,right,x,True,0.502115011215
AS,22,männlich,Gryffindor,das,Der Pate,38,1,3,Armut,negative,200,right,Bestellung,-200,left,-200,left,0.04,hole,right,x,True,0.632344961166
AS,22,männlich,Gryffindor,das,Der Pate,38,1,4,Entspannung,positive,200,right,Dezember,-200,left,-200,left,1,hole,right,x,True,0.492266893387
AS,22,männlich,Gryffindor,das,Der Pate,38,1,5,Krankheit,negative,200,right,Oktober,-200,left,200,right,1,hole,left,m,True,0.306730031967
AS,22,männlich,Gryffindor,das,Der Pate,38,1,6,Qual,negative,-200,right,RadiergummI,200,right,-200,left,1,hole,left,x,True,0.317496061325
AS,22,männlich,Gryffindor,das,Der Pate,38,1,7,Wunde,negative,200,right,Hut,-200,left,200,right,0.04,hole,left,m,True,0.481845855713
AS,22,männlich,Gryffindor,das,Der Pate,38,1,8,Krieg,negative,200,right,Garten,-200,left,-200,left,1,hole,left,x,True,0.263292074203
AS,22,männlich,Gryffindor,das,Der Pate,38,1,9,Koma,negative,200,right,Kunde,-200,left,200,right,1,hole,left,m,True,0.491541147232
AS,22,männlich,Gryffindor,das,Der Pate,38,1,10,Gefängnis,negative,200,right,Pass,-200,left,200,right,1,hole,left,m,True,0.35630106926
AS,22,männlich,Gryffindor,das,Der Pate,38,1,11,Bewunderung,positive,200,right,Februar,-200,left,200,right,1,hole,left,m,True,0.318450927734
AS,22,männlich,Gryffindor,das,Der Pate,38,1,12,Sucht,negative,-200,right,Berg,200,right,200,right,1,hole,left,m,True,0.345408916473
AS,22,männlich,Gryffindor,das,Der Pate,38,1,13,Gestank,negative,200,right,Rock,-200,left,200,right,1,hole,right,m,True,0.387167930603
AS,22,männlich,Gryffindor,das,Der Pate,38,1,14,Höflichkeit,positive,-200,right,Bluse,200,right,200,right,0.04,hole,left,m,True,0.828853845596
AS,22,männlich,Gryffindor,das,Der Pate,38,1,15,Eleganz,positive,-200,right,Teppich,200,right,-200,left,0.04,hole,right,x,True,0.506526947021
AS,22,männlich,Gryffindor,das,Der Pate,38,1,16,Wut,negative,-200,right,Ausweis,200,right,200,right,0.04,hole,right,m,True,0.283617019653
AS,22,männlich,Gryffindor,das,Der Pate,38,1,17,Wohlbefinden,positive,-200,right,Kellner,200,right,-200,left,1,hole,left,x,True,0.353450059891
AS,22,männlich,Gryffindor,das,Der Pate,38,1,18,Trennung,negative,-200,right,Monitor,200,right,-200,left,1,hole,right,x,True,0.414686918259
AS,22,männlich,Gryffindor,das,Der Pate,38,1,19,Beliebtheit,positive,-200,right,Cola,200,right,200,right,0.04,hole,right,m,True,0.384083032608
AS,22,männlich,Gryffindor,das,Der Pate,38,1,20,Schrei,negative,200,right,Brücke,-200,left,200,right,1,hole,left,m,True,0.346297979355
AS,22,männlich,Gryffindor,das,Der Pate,38,1,21,Unterstützung,positive,-200,right,Juni,200,right,-200,left,0.04,hole,left,x,True,0.438353061676
AS,22,männlich,Gryffindor,das,Der Pate,38,1,22,Schönheit,positive,200,right,Locher,-200,left,-200,left,0.04,hole,left,x,True,0.421597003937
AS,22,männlich,Gryffindor,das,Der Pate,38,1,23,Genuss,positive,200,right,Markt,-200,left,200,right,0.04,hole,left,m,True,0.354162931442
AS,22,männlich,Gryffindor,das,Der Pate,38,1,24,Verehrung,positive,200,right,Balkon,-200,left,200,right,0.04,hole,right,m,True,0.388411045074
AS,22,männlich,Gryffindor,das,Der Pate,38,2,0,Geisel,negative,200,right,Apotheke,-200,left,200,right,0.04,cross,None,miss,False,-999
AS,22,männlich,Gryffindor,das,Der Pate,38,2,1,Optimismus,positive,200,right,Anruf,-200,left,-200,left,0.04,cross,None,x,True,0.39849615097
AS,22,männlich,Gryffindor,das,Der Pate,38,2,2,Zufriedenheit,positive,-200,right,Einwohner,200,right,200,right,0.04,cross,None,m,True,0.315536975861
AS,22,männlich,Gryffindor,das,Der Pate,38,2,3,Leid,negative,200,right,Januar,-200,left,-200,left,0.04,cross,None,x,True,0.45529794693
AS,22,männlich,Gryffindor,das,Der Pate,38,2,4,Schatz,positive,-200,right,Diskette,200,right,-200,left,0.04,cross,None,x,True,0.544214010239
AS,22,männlich,Gryffindor,das,Der Pate,38,2,5,Sympathie,positive,-200,right,Bedienung,200,right,200,right,0.04,cross,None,m,True,0.347724914551
AS,22,männlich,Gryffindor,das,Der Pate,38,2,6,Lachen,positive,200,right,Name,-200,left,200,right,0.04,cross,None,m,True,0.436815023422
AS,22,männlich,Gryffindor,das,Der Pate,38,2,7,Rache,negative,200,right,Eile,-200,left,-200,left,0.04,cross,None,x,True,0.452027082443
AS,22,männlich,Gryffindor,das,Der Pate,38,2,8,Belohnung,positive,200,right,Herr,-200,left,200,right,1,cross,None,m,True,0.688106060028
AS,22,männlich,Gryffindor,das,Der Pate,38,2,9,Verzweiflung,negative,-200,right,Zucker,200,right,200,right,1,cross,None,m,True,0.455520868301
AS,22,männlich,Gryffindor,das,Der Pate,38,2,10,Neid,negative,-200,right,Bibliothek,200,right,-200,left,1,cross,None,x,True,1.7675049305
AS,22,männlich,Gryffindor,das,Der Pate,38,2,11,Liebe,positive,-200,right,Stuhl,200,right,-200,left,0.04,cross,None,x,True,0.388135910034
AS,22,männlich,Gryffindor,das,Der Pate,38,2,12,Horror,negative,-200,right,Drucker,200,right,200,right,0.04,cross,None,m,True,0.288935899734
AS,22,männlich,Gryffindor,das,Der Pate,38,2,13,Reichtum,positive,200,right,März,-200,left,200,right,0.04,cross,None,m,True,0.407790184021
AS,22,männlich,Gryffindor,das,Der Pate,38,2,14,Folter,negative,-200,right,Tag,200,right,200,right,0.04,cross,None,m,True,0.386962175369
AS,22,männlich,Gryffindor,das,Der Pate,38,2,15,Glück,positive,-200,right,Eintrittskarte,200,right,200,right,0.04,cross,None,m,True,0.35391497612
AS,22,männlich,Gryffindor,das,Der Pate,38,2,16,Zuverlässigkeit,positive,200,right,Bank,-200,left,-200,left,1,cross,None,x,True,0.357412099838
AS,22,männlich,Gryffindor,das,Der Pate,38,2,17,Spaß,positive,200,right,Beschreibung,-200,left,200,right,1,cross,None,m,True,0.285811901093
AS,22,männlich,Gryffindor,das,Der Pate,38,2,18,Lebensfreude,positive,200,right,Adresse,-200,left,-200,left,1,cross,None,x,True,0.303652048111
AS,22,männlich,Gryffindor,das,Der Pate,38,2,19,Solidarität,positive,200,right,Schlüssel,-200,left,-200,left,1,cross,None,x,True,0.368345975876
AS,22,männlich,Gryffindor,das,Der Pate,38,2,20,Hässlichkeit,negative,200,right,Pullover,-200,left,200,right,1,cross,None,m,True,0.200365066528
AS,22,männlich,Gryffindor,das,Der Pate,38,2,21,Attraktivität,positive,200,right,Dolmetscherin,-200,left,200,right,0.04,cross,None,m,True,0.341133117676
AS,22,männlich,Gryffindor,das,Der Pate,38,2,22,Waffe,negative,200,right,Brille,-200,left,-200,left,0.04,cross,None,x,True,0.368072032928
AS,22,männlich,Gryffindor,das,Der Pate,38,2,23,Panik,negative,200,right,Kleiderhaken,-200,left,-200,left,0.04,cross,None,x,True,0.386740922928
AS,22,männlich,Gryffindor,das,Der Pate,38,2,24,Freundschaft,positive,200,right,Fahrschein,-200,left,200,right,0.04,cross,None,m,True,0.638628005981
AS,22,männlich,Gryffindor,das,Der Pate,38,3,0,Unglück,negative,200,right,Gast,-200,left,200,right,1,hole,right,m,True,0.374137878418
AS,22,männlich,Gryffindor,das,Der Pate,38,3,1,Ehrlichkeit,positive,200,right,Platz,-200,left,-200,left,1,hole,left,x,True,0.327959060669
AS,22,männlich,Gryffindor,das,Der Pate,38,3,2,Hilfsbereitschaft,positive,200,right,Zuschauer,-200,left,-200,left,0.04,hole,right,x,True,0.542512178421
AS,22,männlich,Gryffindor,das,Der Pate,38,3,3,Anerkennung,positive,-200,right,Bankkarte,200,right,-200,left,1,hole,left,x,True,0.435552120209
AS,22,männlich,Gryffindor,das,Der Pate,38,3,4,Mut,positive,-200,right,Sessel,200,right,200,right,1,hole,right,m,True,0.458434104919
AS,22,männlich,Gryffindor,das,Der Pate,38,3,5,Angst,negative,-200,right,Laden,200,right,200,right,1,hole,right,m,True,0.440799951553
AS,22,männlich,Gryffindor,das,Der Pate,38,3,6,Unfall,negative,-200,right,November,200,right,-200,left,1,hole,right,x,True,0.323976039886
AS,22,männlich,Gryffindor,das,Der Pate,38,3,7,Totschlag,negative,-200,right,Juli,200,right,-200,left,0.04,hole,left,x,True,0.367884874344
AS,22,männlich,Gryffindor,das,Der Pate,38,3,8,Ekel,negative,200,right,Fuß,-200,left,-200,left,0.04,hole,left,x,True,0.41587805748
AS,22,männlich,Gryffindor,das,Der Pate,38,3,9,Frieden,positive,-200,right,Wagen,200,right,200,right,0.04,hole,left,m,True,0.408548116684
AS,22,männlich,Gryffindor,das,Der Pate,38,3,10,Vergnügen,positive,-200,right,Keller,200,right,-200,left,1,hole,right,x,True,0.388988018036
AS,22,männlich,Gryffindor,das,Der Pate,38,3,11,Depression,negative,-200,right,August,200,right,-200,left,1,hole,right,x,True,0.377820014954
AS,22,männlich,Gryffindor,das,Der Pate,38,3,12,Gerechtigkeit,positive,-200,right,Tee,200,right,-200,left,1,hole,right,x,True,0.382625102997
AS,22,männlich,Gryffindor,das,Der Pate,38,3,13,Schmerz,negative,200,right,Flur,-200,left,200,right,0.04,hole,right,m,True,0.985077142715
AS,22,männlich,Gryffindor,das,Der Pate,38,3,14,Pessimismus,negative,-200,right,Schrank,200,right,-200,left,0.04,hole,left,x,True,0.756101846695
AS,22,männlich,Gryffindor,das,Der Pate,38,3,15,Hass,negative,-200,right,Passant,200,right,-200,left,1,hole,left,x,True,1.04689288139
AS,22,männlich,Gryffindor,das,Der Pate,38,3,16,Einsamkeit,negative,200,right,Kakao,-200,left,-200,left,0.04,hole,right,x,True,0.482745885849
AS,22,männlich,Gryffindor,das,Der Pate,38,3,17,Regen,negative,-200,right,Tisch,200,right,-200,left,1,hole,right,x,True,0.369663953781
AS,22,männlich,Gryffindor,das,Der Pate,38,3,18,Droge,negative,-200,right,Decke,200,right,-200,left,0.04,hole,right,x,True,0.3848528862
AS,22,männlich,Gryffindor,das,Der Pate,38,3,19,Trauer,negative,200,right,April,-200,left,200,right,1,hole,left,m,True,0.45135807991
AS,22,männlich,Gryffindor,das,Der Pate,38,3,20,Schock,negative,-200,right,Bus,200,right,200,right,0.04,hole,left,m,True,0.444674015045
AS,22,männlich,Gryffindor,das,Der Pate,38,3,21,Tod,negative,200,right,Löffel,-200,left,200,right,0.04,hole,left,m,True,0.569194078445
AS,22,männlich,Gryffindor,das,Der Pate,38,3,22,Heimweh,negative,-200,right,Baum,200,right,-200,left,1,hole,right,x,True,0.338884115219
AS,22,männlich,Gryffindor,das,Der Pate,38,3,23,Bombe,negative,-200,right,Kugelschrieber,200,right,-200,left,1,hole,left,x,True,0.546581029892
AS,22,männlich,Gryffindor,das,Der Pate,38,3,24,Schleim,negative,200,right,Bildschirm,-200,left,-200,left,1,hole,right,x,True,0.352849006653
