subject,age,sex,house,nutella,movie,temperature,block,trial,cue_cond,cue_valence,cue_cond_pos,cue_cond_side,cue_neutral,cue_neutral_pos,cue_neutral_side,target_pos,target_side,duration,fixation,fixation_direction,response,correct,rt
FGHJK,30,männlich,Hufflepuff,das,Der Pate,43,0,0,Schleim,negative,-200,right,Decke,200,right,200,right,1,cross,None,m,True,0.375674180686
FGHJK,30,männlich,Hufflepuff,das,Der Pate,43,0,1,Eleganz,positive,-200,right,Bank,200,right,-200,left,0.04,cross,None,x,True,0.412947824225
FGHJK,30,männlich,Hufflepuff,das,Der Pate,43,0,2,Schönheit,positive,-200,right,August,200,right,200,right,1,cross,None,m,True,0.256321788765
FGHJK,30,männlich,Hufflepuff,das,Der Pate,43,0,3,Rache,negative,-200,right,Apotheke,200,right,-200,left,0.04,cross,None,x,True,0.405163482763
FGHJK,30,männlich,Hufflepuff,das,Der Pate,43,0,4,Verehrung,positive,200,right,Berg,-200,left,200,right,1,cross,None,m,True,0.289157792926
FGHJK,30,männlich,Hufflepuff,das,Der Pate,43,0,5,Mut,positive,200,right,Januar,-200,left,200,right,1,cross,None,m,True,0.344095857814
FGHJK,30,männlich,Hufflepuff,das,Der Pate,43,0,6,Trennung,negative,-200,right,Garten,200,right,-200,left,1,cross,None,x,True,0.32519943919
FGHJK,30,männlich,Hufflepuff,das,Der Pate,43,0,7,Trauer,negative,200,right,Projektor,-200,left,200,right,0.04,cross,None,m,True,0.400694628246
FGHJK,30,männlich,Hufflepuff,das,Der Pate,43,0,8,Lachen,positive,-200,right,Kellner,200,right,-200,left,1,cross,None,x,True,0.301795444451
FGHJK,30,männlich,Hufflepuff,das,Der Pate,43,0,9,Leidenschaft,positive,200,right,Tisch,-200,left,-200,left,1,cross,None,x,True,0.332302586176
FGHJK,30,männlich,Hufflepuff,das,Der Pate,43,0,10,Freundschaft,positive,200,right,Fuß,-200,left,200,right,1,cross,None,m,True,0.315968153067
FGHJK,30,männlich,Hufflepuff,das,Der Pate,43,0,11,Schatz,positive,-200,right,Füller,200,right,200,right,1,cross,None,m,True,0.506084121764
FGHJK,30,männlich,Hufflepuff,das,Der Pate,43,0,12,Bombe,negative,-200,right,Teppich,200,right,-200,left,0.04,cross,None,x,True,0.494828615338
FGHJK,30,männlich,Hufflepuff,das,Der Pate,43,0,13,Tod,negative,200,right,Baum,-200,left,-200,left,0.04,cross,None,x,True,0.68577395007
FGHJK,30,männlich,Hufflepuff,das,Der Pate,43,0,14,Geschenk,positive,-200,right,Kaffee,200,right,-200,left,0.04,cross,None,x,True,0.475376652554
FGHJK,30,männlich,Hufflepuff,das,Der Pate,43,0,15,Sicherheit,positive,-200,right,Schlüssel,200,right,-200,left,0.04,cross,None,x,True,0.429769840091
FGHJK,30,männlich,Hufflepuff,das,Der Pate,43,0,16,Schock,negative,-200,right,Laden,200,right,200,right,0.04,cross,None,m,True,0.361585633829
FGHJK,30,männlich,Hufflepuff,das,Der Pate,43,0,17,Bewunderung,positive,200,right,Apfel,-200,left,-200,left,0.04,cross,None,x,True,0.330377541482
FGHJK,30,männlich,Hufflepuff,das,Der Pate,43,0,18,Gesundheit,positive,-200,right,Locher,200,right,-200,left,0.04,cross,None,x,True,0.444627298974
FGHJK,30,männlich,Hufflepuff,das,Der Pate,43,0,19,Hilfsbereitschaft,positive,200,right,Dezember,-200,left,200,right,1,cross,None,m,True,0.33692277316
FGHJK,30,männlich,Hufflepuff,das,Der Pate,43,0,20,Unfall,negative,200,right,Kakao,-200,left,200,right,1,cross,None,m,True,0.299739217386
FGHJK,30,männlich,Hufflepuff,das,Der Pate,43,0,21,Vergnügen,positive,-200,right,Marktplatz,200,right,-200,left,1,cross,None,x,True,0.340374972671
FGHJK,30,männlich,Hufflepuff,das,Der Pate,43,0,22,Schmerz,negative,-200,right,Fernseher,200,right,-200,left,1,cross,None,x,True,0.338344034739
FGHJK,30,männlich,Hufflepuff,das,Der Pate,43,0,23,Kraft,positive,200,right,März,-200,left,-200,left,0.04,cross,None,x,True,0.472675583325
FGHJK,30,männlich,Hufflepuff,das,Der Pate,43,0,24,Waffe,negative,200,right,Eile,-200,left,200,right,0.04,cross,None,m,True,0.963426912203
FGHJK,30,männlich,Hufflepuff,das,Der Pate,43,1,0,Reichtum,positive,-200,right,Apfelsine,200,right,-200,left,1,hole,left,x,True,0.320512475446
FGHJK,30,männlich,Hufflepuff,das,Der Pate,43,1,1,Frohsinn,positive,200,right,Platz,-200,left,-200,left,1,hole,left,x,True,0.306325542741
FGHJK,30,männlich,Hufflepuff,das,Der Pate,43,1,2,Anschlag,negative,-200,right,Hut,200,right,200,right,0.04,hole,left,m,True,0.361981152557
FGHJK,30,männlich,Hufflepuff,das,Der Pate,43,1,3,Feind,negative,200,right,Finger,-200,left,200,right,0.04,hole,right,m,True,0.368625165895
FGHJK,30,männlich,Hufflepuff,das,Der Pate,43,1,4,Genuss,positive,-200,right,Bankkarte,200,right,200,right,0.04,hole,right,m,True,0.423741036095
FGHJK,30,männlich,Hufflepuff,das,Der Pate,43,1,5,Dankbarkeit,positive,-200,right,Kugelschrieber,200,right,-200,left,0.04,hole,right,x,True,0.363449038006
FGHJK,30,männlich,Hufflepuff,das,Der Pate,43,1,6,Gefängnis,negative,-200,right,Schrank,200,right,-200,left,1,hole,left,x,True,0.267830175348
FGHJK,30,männlich,Hufflepuff,das,Der Pate,43,1,7,Gestank,negative,200,right,Computer,-200,left,200,right,0.04,hole,right,m,True,0.715656400658
FGHJK,30,männlich,Hufflepuff,das,Der Pate,43,1,8,Koma,negative,200,right,Passant,-200,left,200,right,0.04,hole,right,m,True,0.36584744323
FGHJK,30,männlich,Hufflepuff,das,Der Pate,43,1,9,Höflichkeit,positive,-200,right,Geburtstag,200,right,-200,left,0.04,hole,right,x,True,0.382644960657
FGHJK,30,männlich,Hufflepuff,das,Der Pate,43,1,10,Hass,negative,-200,right,Juni,200,right,200,right,0.04,hole,right,m,True,0.40244621411
FGHJK,30,männlich,Hufflepuff,das,Der Pate,43,1,11,Mord,negative,200,right,Name,-200,left,-200,left,1,hole,right,x,True,0.299286405556
FGHJK,30,männlich,Hufflepuff,das,Der Pate,43,1,12,Beliebtheit,positive,-200,right,Adresse,200,right,-200,left,1,hole,right,x,True,0.280221664347
FGHJK,30,männlich,Hufflepuff,das,Der Pate,43,1,13,Armut,negative,200,right,Beschreibung,-200,left,200,right,1,hole,right,m,True,0.327456387691
FGHJK,30,männlich,Hufflepuff,das,Der Pate,43,1,14,Lebensfreude,positive,-200,right,Tag,200,right,200,right,1,hole,left,m,True,0.370465258136
FGHJK,30,männlich,Hufflepuff,das,Der Pate,43,1,15,Frieden,positive,200,right,Februar,-200,left,200,right,0.04,hole,right,m,True,0.388588419184
FGHJK,30,männlich,Hufflepuff,das,Der Pate,43,1,16,Kostbarkeit,positive,200,right,Flur,-200,left,200,right,0.04,hole,right,m,True,0.354738526046
FGHJK,30,männlich,Hufflepuff,das,Der Pate,43,1,17,Schrott,negative,-200,right,Gast,200,right,-200,left,1,hole,right,x,True,0.35193156451
FGHJK,30,männlich,Hufflepuff,das,Der Pate,43,1,18,Sucht,negative,200,right,Rock,-200,left,-200,left,1,hole,right,x,True,0.36204950884
FGHJK,30,männlich,Hufflepuff,das,Der Pate,43,1,19,Folter,negative,-200,right,Bildschirm,200,right,-200,left,1,hole,right,x,True,0.380500622094
FGHJK,30,männlich,Hufflepuff,das,Der Pate,43,1,20,Unglück,negative,200,right,RadiergummI,-200,left,-200,left,0.04,hole,left,x,True,0.606910721399
FGHJK,30,männlich,Hufflepuff,das,Der Pate,43,1,21,Neid,negative,-200,right,Tee,200,right,200,right,1,hole,right,m,True,0.310888041742
FGHJK,30,männlich,Hufflepuff,das,Der Pate,43,1,22,Ekel,negative,-200,right,Dose,200,right,-200,left,1,hole,right,x,True,0.384131813422
FGHJK,30,männlich,Hufflepuff,das,Der Pate,43,1,23,Anerkennung,positive,200,right,Bibliothek,-200,left,200,right,1,hole,left,m,True,0.303565205075
FGHJK,30,männlich,Hufflepuff,das,Der Pate,43,1,24,Spaß,positive,200,right,Flughafen,-200,left,200,right,1,hole,right,m,True,0.358323883265
FGHJK,30,männlich,Hufflepuff,das,Der Pate,43,2,0,Hässlichkeit,negative,-200,right,April,200,right,200,right,0.04,cross,None,m,True,0.38338107802
FGHJK,30,männlich,Hufflepuff,das,Der Pate,43,2,1,Müll,negative,-200,right,Balkon,200,right,200,right,1,cross,None,m,True,0.393093229271
FGHJK,30,männlich,Hufflepuff,das,Der Pate,43,2,2,Krankheit,negative,-200,right,Bus,200,right,200,right,0.04,cross,None,m,True,0.355459628627
FGHJK,30,männlich,Hufflepuff,das,Der Pate,43,2,3,Entspannung,positive,-200,right,Dusche,200,right,200,right,1,cross,None,m,True,0.501915561967
FGHJK,30,männlich,Hufflepuff,das,Der Pate,43,2,4,Wut,negative,200,right,Bahnhof,-200,left,200,right,1,cross,None,m,True,0.348492403515
FGHJK,30,männlich,Hufflepuff,das,Der Pate,43,2,5,Totschlag,negative,200,right,Zug,-200,left,200,right,0.04,cross,None,m,True,0.354703360237
FGHJK,30,männlich,Hufflepuff,das,Der Pate,43,2,6,Tapferkeit,positive,-200,right,Zucker,200,right,-200,left,0.04,cross,None,x,True,0.411654187366
FGHJK,30,männlich,Hufflepuff,das,Der Pate,43,2,7,Qual,negative,-200,right,Brille,200,right,200,right,1,cross,None,m,True,0.32376355771
FGHJK,30,männlich,Hufflepuff,das,Der Pate,43,2,8,Wohlstand,positive,-200,right,Herr,200,right,-200,left,1,cross,None,x,True,0.352607226931
FGHJK,30,männlich,Hufflepuff,das,Der Pate,43,2,9,Treue,positive,200,right,Anruf,-200,left,200,right,0.04,cross,None,m,True,0.339984985068
FGHJK,30,männlich,Hufflepuff,das,Der Pate,43,2,10,Leid,negative,-200,right,Stuhl,200,right,200,right,1,cross,None,m,True,0.346921389922
FGHJK,30,männlich,Hufflepuff,das,Der Pate,43,2,11,Horror,negative,-200,right,Ausweis,200,right,200,right,0.04,cross,None,m,True,0.46467787493
FGHJK,30,männlich,Hufflepuff,das,Der Pate,43,2,12,Optimismus,positive,200,right,Dienstag,-200,left,200,right,0.04,cross,None,m,True,0.374976786785
FGHJK,30,männlich,Hufflepuff,das,Der Pate,43,2,13,Sympathie,positive,-200,right,Schinken,200,right,-200,left,1,cross,None,x,True,0.345209317282
FGHJK,30,männlich,Hufflepuff,das,Der Pate,43,2,14,Verzweiflung,negative,-200,right,Fußboden,200,right,200,right,0.04,cross,None,m,True,0.383539127186
FGHJK,30,männlich,Hufflepuff,das,Der Pate,43,2,15,Liebe,positive,-200,right,Dolmetscherin,200,right,200,right,0.04,cross,None,m,True,0.381810459308
FGHJK,30,männlich,Hufflepuff,das,Der Pate,43,2,16,Bereicherung,positive,200,right,Koch,-200,left,200,right,1,cross,None,m,True,0.352280854248
FGHJK,30,männlich,Hufflepuff,das,Der Pate,43,2,17,Harmonie,positive,-200,right,Pass,200,right,200,right,1,cross,None,m,True,0.382738605142
FGHJK,30,männlich,Hufflepuff,das,Der Pate,43,2,18,Stärke,positive,-200,right,Mai,200,right,200,right,0.04,cross,None,m,True,0.580949087627
FGHJK,30,männlich,Hufflepuff,das,Der Pate,43,2,19,Einsamkeit,negative,-200,right,Zeiger,200,right,200,right,1,cross,None,m,True,0.315348993056
FGHJK,30,männlich,Hufflepuff,das,Der Pate,43,2,20,Übelkeit,negative,200,right,Wind,-200,left,200,right,1,cross,None,m,True,0.365786988288
FGHJK,30,männlich,Hufflepuff,das,Der Pate,43,2,21,Belohnung,positive,-200,right,Drucker,200,right,200,right,1,cross,None,m,True,0.408797440119
FGHJK,30,männlich,Hufflepuff,das,Der Pate,43,2,22,Sturz,negative,-200,right,Park,200,right,-200,left,1,cross,None,x,True,0.369518145919
FGHJK,30,männlich,Hufflepuff,das,Der Pate,43,2,23,Herzlichkeit,positive,-200,right,Anzug,200,right,-200,left,1,cross,None,x,True,0.387619178742
FGHJK,30,männlich,Hufflepuff,das,Der Pate,43,2,24,Panik,negative,200,right,Kleiderhaken,-200,left,200,right,1,cross,None,m,True,0.339805599302
FGHJK,30,männlich,Hufflepuff,das,Der Pate,43,3,0,Solidarität,positive,200,right,Oktober,-200,left,-200,left,0.04,hole,right,x,True,0.407755891792
FGHJK,30,männlich,Hufflepuff,das,Der Pate,43,3,1,Rücksichtnahme,positive,200,right,Bedienung,-200,left,-200,left,0.04,hole,left,x,True,0.457210028544
FGHJK,30,männlich,Hufflepuff,das,Der Pate,43,3,2,Dummheit,negative,-200,right,Löffel,200,right,-200,left,1,hole,left,x,True,0.30856352672
FGHJK,30,männlich,Hufflepuff,das,Der Pate,43,3,3,Depression,negative,200,right,Eintrittskarte,-200,left,200,right,0.04,hole,left,m,True,0.476045597345
FGHJK,30,männlich,Hufflepuff,das,Der Pate,43,3,4,Ehrlichkeit,positive,200,right,Fahrschein,-200,left,200,right,1,hole,right,m,True,0.468890293501
FGHJK,30,männlich,Hufflepuff,das,Der Pate,43,3,5,Attraktivität,positive,-200,right,Sessel,200,right,200,right,1,hole,right,m,True,0.475229271688
FGHJK,30,männlich,Hufflepuff,das,Der Pate,43,3,6,Wohlbefinden,positive,-200,right,Kunde,200,right,200,right,0.04,hole,left,x,False,0.340077839792
FGHJK,30,männlich,Hufflepuff,das,Der Pate,43,3,7,Zuverlässigkeit,positive,200,right,Pullover,-200,left,-200,left,0.04,hole,left,x,True,0.425404903479
FGHJK,30,männlich,Hufflepuff,das,Der Pate,43,3,8,Angst,negative,200,right,Monitor,-200,left,200,right,1,hole,left,m,True,0.287761423737
FGHJK,30,männlich,Hufflepuff,das,Der Pate,43,3,9,Regen,negative,-200,right,Diskette,200,right,-200,left,1,hole,left,x,True,0.292896457016
FGHJK,30,männlich,Hufflepuff,das,Der Pate,43,3,10,Freiheit,positive,-200,right,Brücke,200,right,200,right,1,hole,right,m,True,0.376485371031
FGHJK,30,männlich,Hufflepuff,das,Der Pate,43,3,11,Unterstützung,positive,200,right,Einwohner,-200,left,200,right,0.04,hole,right,m,True,0.676079973578
FGHJK,30,männlich,Hufflepuff,das,Der Pate,43,3,12,Schrei,negative,-200,right,Wagen,200,right,200,right,1,hole,right,m,True,0.381226070225
FGHJK,30,männlich,Hufflepuff,das,Der Pate,43,3,13,Heimweh,negative,-200,right,Hafen,200,right,200,right,1,hole,left,m,True,0.376368809491
FGHJK,30,männlich,Hufflepuff,das,Der Pate,43,3,14,Gerechtigkeit,positive,-200,right,Supermarkt,200,right,-200,left,0.04,hole,left,x,True,0.385008594021
FGHJK,30,männlich,Hufflepuff,das,Der Pate,43,3,15,Wunde,negative,200,right,Juli,-200,left,-200,left,0.04,hole,right,x,True,0.339263883419
FGHJK,30,männlich,Hufflepuff,das,Der Pate,43,3,16,Zufriedenheit,positive,200,right,Strumpf,-200,left,-200,left,0.04,hole,left,x,True,0.421361597255
FGHJK,30,männlich,Hufflepuff,das,Der Pate,43,3,17,Glück,positive,200,right,Cola,-200,left,-200,left,0.04,hole,right,x,True,0.415650473908
FGHJK,30,männlich,Hufflepuff,das,Der Pate,43,3,18,Droge,negative,-200,right,Keller,200,right,200,right,0.04,hole,right,m,True,0.331313590519
FGHJK,30,männlich,Hufflepuff,das,Der Pate,43,3,19,Erfolg,positive,-200,right,Zuschauer,200,right,-200,left,1,hole,right,x,True,0.323978505097
FGHJK,30,männlich,Hufflepuff,das,Der Pate,43,3,20,Pessimismus,negative,-200,right,Septmeber,200,right,-200,left,0.04,hole,right,x,True,0.370607108809
FGHJK,30,männlich,Hufflepuff,das,Der Pate,43,3,21,Terror,negative,-200,right,November,200,right,200,right,0.04,hole,right,m,True,0.342347037978
FGHJK,30,männlich,Hufflepuff,das,Der Pate,43,3,22,Krieg,negative,-200,right,Bestellung,200,right,-200,left,1,hole,right,x,True,0.343515419401
FGHJK,30,männlich,Hufflepuff,das,Der Pate,43,3,23,Geisel,negative,-200,right,Markt,200,right,-200,left,1,hole,left,x,True,0.365207737312
FGHJK,30,männlich,Hufflepuff,das,Der Pate,43,3,24,Verletzung,negative,200,right,Bluse,-200,left,-200,left,0.04,hole,right,x,True,0.375422880985
