subject,age,sex,house,nutella,movie,temperature,block,trial,cue_cond,cue_valence,cue_cond_pos,cue_cond_side,cue_neutral,cue_neutral_pos,cue_neutral_side,target_pos,target_side,duration,fixation,fixation_direction,response,correct,rt
FloMat,26,männlich,Hufflepuff,das,Pulp Fiction,39,0,0,Hass,negative,200,right,Fußboden,-200,left,200,right,1,cross,None,m,True,0.445538043976
FloMat,26,männlich,Hufflepuff,das,Pulp Fiction,39,0,1,Unfall,negative,-200,right,Ausweis,200,right,200,right,1,cross,None,m,True,0.461834192276
FloMat,26,männlich,Hufflepuff,das,Pulp Fiction,39,0,2,Tod,negative,-200,right,Mai,200,right,200,right,0.04,cross,None,m,True,0.527668952942
FloMat,26,männlich,Hufflepuff,das,Pulp Fiction,39,0,3,Geisel,negative,200,right,Supermarkt,-200,left,-200,left,1,cross,None,x,True,0.471359014511
FloMat,26,männlich,Hufflepuff,das,Pulp Fiction,39,0,4,Attraktivität,positive,200,right,Pullover,-200,left,-200,left,0.04,cross,None,x,True,0.403427124023
FloMat,26,männlich,Hufflepuff,das,Pulp Fiction,39,0,5,Höflichkeit,positive,-200,right,Apfel,200,right,200,right,1,cross,None,m,True,0.37881398201
FloMat,26,männlich,Hufflepuff,das,Pulp Fiction,39,0,6,Anerkennung,positive,-200,right,Balkon,200,right,200,right,1,cross,None,m,True,0.39750790596
FloMat,26,männlich,Hufflepuff,das,Pulp Fiction,39,0,7,Hässlichkeit,negative,200,right,Bank,-200,left,200,right,0.04,cross,None,m,True,0.603255033493
FloMat,26,männlich,Hufflepuff,das,Pulp Fiction,39,0,8,Qual,negative,-200,right,Marktplatz,200,right,200,right,0.04,cross,None,m,True,0.398568868637
FloMat,26,männlich,Hufflepuff,das,Pulp Fiction,39,0,9,Verletzung,negative,200,right,Bibliothek,-200,left,-200,left,0.04,cross,None,miss,False,-999
FloMat,26,männlich,Hufflepuff,das,Pulp Fiction,39,0,10,Erfolg,positive,200,right,Löffel,-200,left,200,right,0.04,cross,None,miss,False,-999
FloMat,26,männlich,Hufflepuff,das,Pulp Fiction,39,0,11,Heimweh,negative,200,right,November,-200,left,-200,left,0.04,cross,None,miss,False,-999
FloMat,26,männlich,Hufflepuff,das,Pulp Fiction,39,0,12,Freiheit,positive,-200,right,Geburtstag,200,right,-200,left,1,cross,None,x,True,0.960775136948
FloMat,26,männlich,Hufflepuff,das,Pulp Fiction,39,0,13,Wunde,negative,200,right,Juni,-200,left,200,right,0.04,cross,None,m,True,0.381438970566
FloMat,26,männlich,Hufflepuff,das,Pulp Fiction,39,0,14,Totschlag,negative,200,right,Herr,-200,left,-200,left,0.04,cross,None,x,True,0.375689029694
FloMat,26,männlich,Hufflepuff,das,Pulp Fiction,39,0,15,Wohlstand,positive,-200,right,Brücke,200,right,-200,left,0.04,cross,None,x,True,0.386599779129
FloMat,26,männlich,Hufflepuff,das,Pulp Fiction,39,0,16,Dummheit,negative,-200,right,Bestellung,200,right,200,right,1,cross,None,miss,False,-999
FloMat,26,männlich,Hufflepuff,das,Pulp Fiction,39,0,17,Spaß,positive,-200,right,Bus,200,right,200,right,1,cross,None,miss,False,-999
FloMat,26,männlich,Hufflepuff,das,Pulp Fiction,39,0,18,Leidenschaft,positive,200,right,Sessel,-200,left,200,right,0.04,cross,None,miss,False,-999
FloMat,26,männlich,Hufflepuff,das,Pulp Fiction,39,0,19,Vergnügen,positive,-200,right,Keller,200,right,200,right,1,cross,None,miss,False,-999
FloMat,26,männlich,Hufflepuff,das,Pulp Fiction,39,0,20,Übelkeit,negative,200,right,August,-200,left,200,right,1,cross,None,miss,False,-999
FloMat,26,männlich,Hufflepuff,das,Pulp Fiction,39,0,21,Krankheit,negative,200,right,Computer,-200,left,200,right,1,cross,None,miss,False,-999
FloMat,26,männlich,Hufflepuff,das,Pulp Fiction,39,0,22,Depression,negative,200,right,Drucker,-200,left,200,right,0.04,cross,None,m,True,0.370006084442
FloMat,26,männlich,Hufflepuff,das,Pulp Fiction,39,0,23,Schmerz,negative,200,right,Dusche,-200,left,-200,left,0.04,cross,None,x,True,0.849540948868
FloMat,26,männlich,Hufflepuff,das,Pulp Fiction,39,0,24,Verehrung,positive,-200,right,Zug,200,right,-200,left,0.04,cross,None,x,True,0.443841934204
FloMat,26,männlich,Hufflepuff,das,Pulp Fiction,39,1,0,Bewunderung,positive,-200,right,Berg,200,right,-200,left,1,hole,right,x,True,0.435440063477
FloMat,26,männlich,Hufflepuff,das,Pulp Fiction,39,1,1,Wohlbefinden,positive,-200,right,Februar,200,right,200,right,0.04,hole,right,x,False,0.405624866486
FloMat,26,männlich,Hufflepuff,das,Pulp Fiction,39,1,2,Regen,negative,-200,right,Brille,200,right,-200,left,1,hole,left,x,True,1.33798503876
FloMat,26,männlich,Hufflepuff,das,Pulp Fiction,39,1,3,Entspannung,positive,200,right,Kugelschrieber,-200,left,200,right,0.04,hole,left,m,True,0.366472005844
FloMat,26,männlich,Hufflepuff,das,Pulp Fiction,39,1,4,Krieg,negative,200,right,Markt,-200,left,-200,left,0.04,hole,right,miss,False,-999
FloMat,26,männlich,Hufflepuff,das,Pulp Fiction,39,1,5,Gestank,negative,200,right,Name,-200,left,200,right,0.04,hole,right,m,True,0.358440160751
FloMat,26,männlich,Hufflepuff,das,Pulp Fiction,39,1,6,Schatz,positive,-200,right,Stuhl,200,right,-200,left,1,hole,left,x,True,1.81126189232
FloMat,26,männlich,Hufflepuff,das,Pulp Fiction,39,1,7,Bombe,negative,-200,right,Schinken,200,right,200,right,0.04,hole,right,m,True,0.335186004639
FloMat,26,männlich,Hufflepuff,das,Pulp Fiction,39,1,8,Dankbarkeit,positive,-200,right,Baum,200,right,200,right,0.04,hole,left,m,True,0.356287956238
FloMat,26,männlich,Hufflepuff,das,Pulp Fiction,39,1,9,Koma,negative,200,right,Dolmetscherin,-200,left,200,right,1,hole,right,m,True,0.358180999756
FloMat,26,männlich,Hufflepuff,das,Pulp Fiction,39,1,10,Liebe,positive,200,right,Projektor,-200,left,-200,left,0.04,hole,right,x,True,0.756271839142
FloMat,26,männlich,Hufflepuff,das,Pulp Fiction,39,1,11,Schleim,negative,200,right,Bahnhof,-200,left,-200,left,1,hole,right,x,True,0.395074129105
FloMat,26,männlich,Hufflepuff,das,Pulp Fiction,39,1,12,Beliebtheit,positive,200,right,Fuß,-200,left,200,right,1,hole,left,m,True,0.496695995331
FloMat,26,männlich,Hufflepuff,das,Pulp Fiction,39,1,13,Optimismus,positive,-200,right,Zeiger,200,right,200,right,1,hole,right,m,True,0.279211997986
FloMat,26,männlich,Hufflepuff,das,Pulp Fiction,39,1,14,Glück,positive,-200,right,Koch,200,right,-200,left,0.04,hole,right,x,True,1.93596601486
FloMat,26,männlich,Hufflepuff,das,Pulp Fiction,39,1,15,Schrei,negative,-200,right,Laden,200,right,-200,left,1,hole,left,x,True,0.430953025818
FloMat,26,männlich,Hufflepuff,das,Pulp Fiction,39,1,16,Unglück,negative,-200,right,Zuschauer,200,right,-200,left,1,hole,left,x,True,1.89688301086
FloMat,26,männlich,Hufflepuff,das,Pulp Fiction,39,1,17,Müll,negative,200,right,RadiergummI,-200,left,200,right,0.04,hole,right,miss,False,-999
FloMat,26,männlich,Hufflepuff,das,Pulp Fiction,39,1,18,Belohnung,positive,200,right,Passant,-200,left,200,right,0.04,hole,left,miss,False,-999
FloMat,26,männlich,Hufflepuff,das,Pulp Fiction,39,1,19,Armut,negative,200,right,Wagen,-200,left,-200,left,0.04,hole,left,miss,False,-999
FloMat,26,männlich,Hufflepuff,das,Pulp Fiction,39,1,20,Lebensfreude,positive,-200,right,Platz,200,right,-200,left,1,hole,left,miss,False,-999
FloMat,26,männlich,Hufflepuff,das,Pulp Fiction,39,1,21,Sucht,negative,-200,right,Park,200,right,-200,left,1,hole,right,miss,False,-999
FloMat,26,männlich,Hufflepuff,das,Pulp Fiction,39,1,22,Ehrlichkeit,positive,200,right,Beschreibung,-200,left,-200,left,0.04,hole,right,x,True,0.461791038513
FloMat,26,männlich,Hufflepuff,das,Pulp Fiction,39,1,23,Einsamkeit,negative,200,right,Oktober,-200,left,200,right,1,hole,right,m,True,1.11241197586
FloMat,26,männlich,Hufflepuff,das,Pulp Fiction,39,1,24,Freundschaft,positive,200,right,März,-200,left,-200,left,0.04,hole,right,miss,False,-999
FloMat,26,männlich,Hufflepuff,das,Pulp Fiction,39,2,0,Gerechtigkeit,positive,200,right,Adresse,-200,left,-200,left,1,cross,None,x,True,1.19018793106
FloMat,26,männlich,Hufflepuff,das,Pulp Fiction,39,2,1,Droge,negative,-200,right,Kleiderhaken,200,right,200,right,1,cross,None,m,True,0.420419216156
FloMat,26,männlich,Hufflepuff,das,Pulp Fiction,39,2,2,Schönheit,positive,-200,right,Tee,200,right,200,right,0.04,cross,None,miss,False,-999
FloMat,26,männlich,Hufflepuff,das,Pulp Fiction,39,2,3,Ekel,negative,-200,right,Bildschirm,200,right,200,right,0.04,cross,None,m,True,0.924978971481
FloMat,26,männlich,Hufflepuff,das,Pulp Fiction,39,2,4,Verzweiflung,negative,200,right,Tag,-200,left,200,right,0.04,cross,None,m,True,0.348356962204
FloMat,26,männlich,Hufflepuff,das,Pulp Fiction,39,2,5,Schock,negative,200,right,Hut,-200,left,200,right,1,cross,None,m,True,0.293423891068
FloMat,26,männlich,Hufflepuff,das,Pulp Fiction,39,2,6,Panik,negative,200,right,Zucker,-200,left,-200,left,1,cross,None,x,True,0.402592897415
FloMat,26,männlich,Hufflepuff,das,Pulp Fiction,39,2,7,Schrott,negative,-200,right,Strumpf,200,right,-200,left,0.04,cross,None,x,True,0.355627059937
FloMat,26,männlich,Hufflepuff,das,Pulp Fiction,39,2,8,Stärke,positive,200,right,Bankkarte,-200,left,200,right,0.04,cross,None,m,True,0.440753936768
FloMat,26,männlich,Hufflepuff,das,Pulp Fiction,39,2,9,Harmonie,positive,200,right,Teppich,-200,left,-200,left,1,cross,None,x,True,0.460150957108
FloMat,26,männlich,Hufflepuff,das,Pulp Fiction,39,2,10,Tapferkeit,positive,-200,right,Tisch,200,right,-200,left,0.04,cross,None,miss,False,-999
FloMat,26,männlich,Hufflepuff,das,Pulp Fiction,39,2,11,Zuverlässigkeit,positive,200,right,Schlüssel,-200,left,200,right,0.04,cross,None,m,True,0.582645893097
FloMat,26,männlich,Hufflepuff,das,Pulp Fiction,39,2,12,Lachen,positive,200,right,Finger,-200,left,-200,left,1,cross,None,x,True,0.326597929001
FloMat,26,männlich,Hufflepuff,das,Pulp Fiction,39,2,13,Pessimismus,negative,-200,right,Kaffee,200,right,200,right,0.04,cross,None,m,True,0.614688158035
FloMat,26,männlich,Hufflepuff,das,Pulp Fiction,39,2,14,Frohsinn,positive,200,right,Bluse,-200,left,200,right,1,cross,None,m,True,0.306052923203
FloMat,26,männlich,Hufflepuff,das,Pulp Fiction,39,2,15,Sympathie,positive,200,right,Decke,-200,left,200,right,0.04,cross,None,m,True,0.441036939621
FloMat,26,männlich,Hufflepuff,das,Pulp Fiction,39,2,16,Treue,positive,-200,right,Monitor,200,right,-200,left,0.04,cross,None,miss,False,-999
FloMat,26,männlich,Hufflepuff,das,Pulp Fiction,39,2,17,Terror,negative,-200,right,Rock,200,right,200,right,0.04,cross,None,m,True,0.345641136169
FloMat,26,männlich,Hufflepuff,das,Pulp Fiction,39,2,18,Solidarität,positive,200,right,Januar,-200,left,200,right,0.04,cross,None,miss,False,-999
FloMat,26,männlich,Hufflepuff,das,Pulp Fiction,39,2,19,Trennung,negative,200,right,Wind,-200,left,200,right,1,cross,None,m,True,0.323830127716
FloMat,26,männlich,Hufflepuff,das,Pulp Fiction,39,2,20,Rache,negative,200,right,Dienstag,-200,left,200,right,0.04,cross,None,m,True,1.52170705795
FloMat,26,männlich,Hufflepuff,das,Pulp Fiction,39,2,21,Gefängnis,negative,200,right,Apfelsine,-200,left,200,right,1,cross,None,m,True,0.546655893326
FloMat,26,männlich,Hufflepuff,das,Pulp Fiction,39,2,22,Rücksichtnahme,positive,-200,right,Füller,200,right,-200,left,1,cross,None,miss,False,-999
FloMat,26,männlich,Hufflepuff,das,Pulp Fiction,39,2,23,Hilfsbereitschaft,positive,200,right,Fahrschein,-200,left,-200,left,0.04,cross,None,miss,False,-999
FloMat,26,männlich,Hufflepuff,das,Pulp Fiction,39,2,24,Leid,negative,200,right,Eile,-200,left,200,right,0.04,cross,None,m,True,0.847191095352
FloMat,26,männlich,Hufflepuff,das,Pulp Fiction,39,3,0,Sturz,negative,200,right,Apotheke,-200,left,200,right,0.04,hole,right,m,True,0.329023122787
FloMat,26,männlich,Hufflepuff,das,Pulp Fiction,39,3,1,Horror,negative,-200,right,Flughafen,200,right,-200,left,0.04,hole,right,x,True,0.376534938812
FloMat,26,männlich,Hufflepuff,das,Pulp Fiction,39,3,2,Reichtum,positive,200,right,Septmeber,-200,left,-200,left,1,hole,left,x,True,0.806001901627
FloMat,26,männlich,Hufflepuff,das,Pulp Fiction,39,3,3,Sicherheit,positive,-200,right,Flur,200,right,-200,left,0.04,hole,left,miss,False,-999
FloMat,26,männlich,Hufflepuff,das,Pulp Fiction,39,3,4,Geschenk,positive,-200,right,Pass,200,right,-200,left,0.04,hole,left,m,False,0.803645133972
FloMat,26,männlich,Hufflepuff,das,Pulp Fiction,39,3,5,Waffe,negative,200,right,Einwohner,-200,left,-200,left,0.04,hole,right,x,True,0.314866065979
FloMat,26,männlich,Hufflepuff,das,Pulp Fiction,39,3,6,Anschlag,negative,200,right,Kellner,-200,left,-200,left,0.04,hole,right,miss,False,-999
FloMat,26,männlich,Hufflepuff,das,Pulp Fiction,39,3,7,Gesundheit,positive,-200,right,Bedienung,200,right,-200,left,0.04,hole,right,miss,False,-999
FloMat,26,männlich,Hufflepuff,das,Pulp Fiction,39,3,8,Kostbarkeit,positive,200,right,Gast,-200,left,200,right,0.04,hole,right,m,True,0.414015054703
FloMat,26,männlich,Hufflepuff,das,Pulp Fiction,39,3,9,Frieden,positive,200,right,Eintrittskarte,-200,left,200,right,0.04,hole,left,m,True,1.39976501465
FloMat,26,männlich,Hufflepuff,das,Pulp Fiction,39,3,10,Folter,negative,-200,right,Dose,200,right,-200,left,0.04,hole,right,x,True,0.723141908646
FloMat,26,männlich,Hufflepuff,das,Pulp Fiction,39,3,11,Eleganz,positive,-200,right,Juli,200,right,-200,left,1,hole,left,x,True,0.658217906952
FloMat,26,männlich,Hufflepuff,das,Pulp Fiction,39,3,12,Neid,negative,200,right,April,-200,left,200,right,0.04,hole,right,m,True,0.453732013702
FloMat,26,männlich,Hufflepuff,das,Pulp Fiction,39,3,13,Unterstützung,positive,200,right,Fernseher,-200,left,-200,left,0.04,hole,left,x,True,0.433393955231
FloMat,26,männlich,Hufflepuff,das,Pulp Fiction,39,3,14,Bereicherung,positive,-200,right,Kakao,200,right,-200,left,1,hole,right,x,True,0.441776990891
FloMat,26,männlich,Hufflepuff,das,Pulp Fiction,39,3,15,Trauer,negative,200,right,Anzug,-200,left,-200,left,0.04,hole,right,miss,False,-999
FloMat,26,männlich,Hufflepuff,das,Pulp Fiction,39,3,16,Wut,negative,-200,right,Garten,200,right,200,right,1,hole,left,miss,False,-999
FloMat,26,männlich,Hufflepuff,das,Pulp Fiction,39,3,17,Mord,negative,200,right,Dezember,-200,left,200,right,0.04,hole,right,x,False,0.829080104828
FloMat,26,männlich,Hufflepuff,das,Pulp Fiction,39,3,18,Feind,negative,200,right,Schrank,-200,left,-200,left,0.04,hole,left,miss,False,-999
FloMat,26,männlich,Hufflepuff,das,Pulp Fiction,39,3,19,Angst,negative,200,right,Diskette,-200,left,-200,left,1,hole,right,x,True,0.402760982513
FloMat,26,männlich,Hufflepuff,das,Pulp Fiction,39,3,20,Kraft,positive,200,right,Anruf,-200,left,200,right,1,hole,left,m,True,0.911880970001
FloMat,26,männlich,Hufflepuff,das,Pulp Fiction,39,3,21,Zufriedenheit,positive,-200,right,Hafen,200,right,-200,left,1,hole,left,x,True,1.82569599152
FloMat,26,männlich,Hufflepuff,das,Pulp Fiction,39,3,22,Herzlichkeit,positive,-200,right,Locher,200,right,-200,left,0.04,hole,right,x,True,0.834595918655
FloMat,26,männlich,Hufflepuff,das,Pulp Fiction,39,3,23,Genuss,positive,200,right,Kunde,-200,left,200,right,1,hole,left,m,True,0.288038015366
FloMat,26,männlich,Hufflepuff,das,Pulp Fiction,39,3,24,Mut,positive,200,right,Cola,-200,left,200,right,1,hole,left,m,True,0.395781993866
