subject,age,sex,house,nutella,movie,temperature,block,trial,cue_cond,cue_valence,cue_cond_pos,cue_cond_side,cue_neutral,cue_neutral_pos,cue_neutral_side,target_pos,target_side,duration,fixation,fixation_direction,response,correct,rt
LS,35,weiblich,Gryffindor,die,Der Pate,40,0,0,Hass,negative,200,right,Juni,-200,left,200,right,1,cross,None,m,True,0.472972869873
LS,35,weiblich,Gryffindor,die,Der Pate,40,0,1,Belohnung,positive,-200,right,Balkon,200,right,-200,left,0.04,cross,None,x,True,0.376873970032
LS,35,weiblich,Gryffindor,die,Der Pate,40,0,2,Glück,positive,200,right,Einwohner,-200,left,-200,left,0.04,cross,None,x,True,0.390964031219
LS,35,weiblich,Gryffindor,die,Der Pate,40,0,3,Liebe,positive,200,right,Füller,-200,left,-200,left,0.04,cross,None,x,True,0.314206123352
LS,35,weiblich,Gryffindor,die,Der Pate,40,0,4,Folter,negative,200,right,Tee,-200,left,200,right,1,cross,None,m,True,0.331718921661
LS,35,weiblich,Gryffindor,die,Der Pate,40,0,5,Trennung,negative,200,right,Garten,-200,left,-200,left,0.04,cross,None,x,True,0.34290599823
LS,35,weiblich,Gryffindor,die,Der Pate,40,0,6,Bereicherung,positive,-200,right,Pullover,200,right,200,right,1,cross,None,m,True,0.356258869171
LS,35,weiblich,Gryffindor,die,Der Pate,40,0,7,Bewunderung,positive,-200,right,Dose,200,right,200,right,0.04,cross,None,m,True,0.405266046524
LS,35,weiblich,Gryffindor,die,Der Pate,40,0,8,Kostbarkeit,positive,-200,right,Kunde,200,right,200,right,1,cross,None,m,True,0.338451862335
LS,35,weiblich,Gryffindor,die,Der Pate,40,0,9,Freiheit,positive,-200,right,Stuhl,200,right,200,right,0.04,cross,None,m,True,0.315960884094
LS,35,weiblich,Gryffindor,die,Der Pate,40,0,10,Pessimismus,negative,-200,right,Hut,200,right,-200,left,1,cross,None,x,True,0.294058084488
LS,35,weiblich,Gryffindor,die,Der Pate,40,0,11,Zufriedenheit,positive,-200,right,Geburtstag,200,right,-200,left,0.04,cross,None,x,True,0.445501089096
LS,35,weiblich,Gryffindor,die,Der Pate,40,0,12,Mord,negative,-200,right,Cola,200,right,200,right,0.04,cross,None,m,True,0.376209974289
LS,35,weiblich,Gryffindor,die,Der Pate,40,0,13,Gestank,negative,200,right,Löffel,-200,left,-200,left,1,cross,None,x,True,0.322804927826
LS,35,weiblich,Gryffindor,die,Der Pate,40,0,14,Lachen,positive,-200,right,Finger,200,right,-200,left,1,cross,None,x,True,0.246481180191
LS,35,weiblich,Gryffindor,die,Der Pate,40,0,15,Gefängnis,negative,200,right,Computer,-200,left,200,right,0.04,cross,None,m,True,0.364323139191
LS,35,weiblich,Gryffindor,die,Der Pate,40,0,16,Horror,negative,200,right,Park,-200,left,200,right,0.04,cross,None,m,True,0.316164970398
LS,35,weiblich,Gryffindor,die,Der Pate,40,0,17,Müll,negative,200,right,Tisch,-200,left,-200,left,1,cross,None,x,True,0.2479429245
LS,35,weiblich,Gryffindor,die,Der Pate,40,0,18,Sucht,negative,200,right,Platz,-200,left,-200,left,0.04,cross,None,x,True,0.405977964401
LS,35,weiblich,Gryffindor,die,Der Pate,40,0,19,Angst,negative,-200,right,Apfelsine,200,right,200,right,1,cross,None,m,True,0.422248840332
LS,35,weiblich,Gryffindor,die,Der Pate,40,0,20,Tapferkeit,positive,-200,right,Bibliothek,200,right,-200,left,0.04,cross,None,x,True,0.393689155579
LS,35,weiblich,Gryffindor,die,Der Pate,40,0,21,Unglück,negative,-200,right,Fahrschein,200,right,200,right,0.04,cross,None,m,True,0.346006155014
LS,35,weiblich,Gryffindor,die,Der Pate,40,0,22,Schatz,positive,-200,right,Apfel,200,right,-200,left,0.04,cross,None,x,True,0.322205066681
LS,35,weiblich,Gryffindor,die,Der Pate,40,0,23,Erfolg,positive,-200,right,Juli,200,right,-200,left,0.04,cross,None,x,True,0.371263027191
LS,35,weiblich,Gryffindor,die,Der Pate,40,0,24,Schmerz,negative,200,right,November,-200,left,-200,left,0.04,cross,None,x,True,0.335456132889
LS,35,weiblich,Gryffindor,die,Der Pate,40,1,0,Wunde,negative,-200,right,Strumpf,200,right,200,right,0.04,hole,right,m,True,0.386287927628
LS,35,weiblich,Gryffindor,die,Der Pate,40,1,1,Totschlag,negative,200,right,Monitor,-200,left,-200,left,1,hole,left,x,True,0.25884604454
LS,35,weiblich,Gryffindor,die,Der Pate,40,1,2,Koma,negative,-200,right,Dienstag,200,right,200,right,0.04,hole,right,m,True,0.204174041748
LS,35,weiblich,Gryffindor,die,Der Pate,40,1,3,Vergnügen,positive,200,right,Locher,-200,left,-200,left,1,hole,right,x,True,0.235810041428
LS,35,weiblich,Gryffindor,die,Der Pate,40,1,4,Geschenk,positive,-200,right,Anruf,200,right,200,right,0.04,hole,right,m,True,0.299849033356
LS,35,weiblich,Gryffindor,die,Der Pate,40,1,5,Wohlbefinden,positive,-200,right,Beschreibung,200,right,200,right,1,hole,right,m,True,0.352009057999
LS,35,weiblich,Gryffindor,die,Der Pate,40,1,6,Armut,negative,200,right,Markt,-200,left,200,right,0.04,hole,left,m,True,0.387373924255
LS,35,weiblich,Gryffindor,die,Der Pate,40,1,7,Dummheit,negative,200,right,Januar,-200,left,200,right,1,hole,left,m,True,0.357176065445
LS,35,weiblich,Gryffindor,die,Der Pate,40,1,8,Wut,negative,200,right,Wagen,-200,left,200,right,0.04,hole,left,m,True,0.486037015915
LS,35,weiblich,Gryffindor,die,Der Pate,40,1,9,Anerkennung,positive,200,right,Bank,-200,left,200,right,1,hole,left,m,True,0.442147016525
LS,35,weiblich,Gryffindor,die,Der Pate,40,1,10,Gerechtigkeit,positive,-200,right,Fuß,200,right,200,right,1,hole,right,m,True,0.326394081116
LS,35,weiblich,Gryffindor,die,Der Pate,40,1,11,Schock,negative,-200,right,Oktober,200,right,-200,left,1,hole,right,x,True,0.346937894821
LS,35,weiblich,Gryffindor,die,Der Pate,40,1,12,Schrott,negative,-200,right,Dezember,200,right,200,right,0.04,hole,right,m,True,0.435833930969
LS,35,weiblich,Gryffindor,die,Der Pate,40,1,13,Optimismus,positive,-200,right,Kugelschrieber,200,right,-200,left,0.04,hole,right,x,True,0.452121019363
LS,35,weiblich,Gryffindor,die,Der Pate,40,1,14,Schrei,negative,-200,right,Name,200,right,-200,left,0.04,hole,right,x,True,0.405534029007
LS,35,weiblich,Gryffindor,die,Der Pate,40,1,15,Rache,negative,-200,right,Brücke,200,right,-200,left,0.04,hole,left,x,True,0.355796813965
LS,35,weiblich,Gryffindor,die,Der Pate,40,1,16,Anschlag,negative,-200,right,Sessel,200,right,-200,left,0.04,hole,right,x,True,0.403371095657
LS,35,weiblich,Gryffindor,die,Der Pate,40,1,17,Sturz,negative,200,right,Fußboden,-200,left,-200,left,1,hole,right,x,True,0.339083194733
LS,35,weiblich,Gryffindor,die,Der Pate,40,1,18,Verzweiflung,negative,-200,right,Februar,200,right,200,right,1,hole,right,m,True,0.340205907822
LS,35,weiblich,Gryffindor,die,Der Pate,40,1,19,Harmonie,positive,-200,right,Schlüssel,200,right,-200,left,0.04,hole,right,x,True,0.352743148804
LS,35,weiblich,Gryffindor,die,Der Pate,40,1,20,Leid,negative,-200,right,Kakao,200,right,-200,left,1,hole,right,x,True,0.314594984055
LS,35,weiblich,Gryffindor,die,Der Pate,40,1,21,Panik,negative,-200,right,März,200,right,200,right,0.04,hole,left,m,True,0.350061178207
LS,35,weiblich,Gryffindor,die,Der Pate,40,1,22,Krieg,negative,200,right,Marktplatz,-200,left,-200,left,0.04,hole,right,x,True,0.363411188126
LS,35,weiblich,Gryffindor,die,Der Pate,40,1,23,Mut,positive,200,right,Dolmetscherin,-200,left,-200,left,0.04,hole,left,x,True,0.293601036072
LS,35,weiblich,Gryffindor,die,Der Pate,40,1,24,Wohlstand,positive,200,right,Drucker,-200,left,200,right,1,hole,left,m,True,0.328477144241
LS,35,weiblich,Gryffindor,die,Der Pate,40,2,0,Droge,negative,-200,right,Eile,200,right,-200,left,0.04,cross,None,x,True,0.786864995956
LS,35,weiblich,Gryffindor,die,Der Pate,40,2,1,Frieden,positive,200,right,Bluse,-200,left,200,right,0.04,cross,None,m,True,0.569001197815
LS,35,weiblich,Gryffindor,die,Der Pate,40,2,2,Sympathie,positive,-200,right,Apotheke,200,right,200,right,1,cross,None,m,True,0.661446094513
LS,35,weiblich,Gryffindor,die,Der Pate,40,2,3,Depression,negative,200,right,Zug,-200,left,-200,left,0.04,cross,None,x,True,0.373080015182
LS,35,weiblich,Gryffindor,die,Der Pate,40,2,4,Eleganz,positive,200,right,Laden,-200,left,200,right,1,cross,None,m,True,0.797771215439
LS,35,weiblich,Gryffindor,die,Der Pate,40,2,5,Waffe,negative,-200,right,Dusche,200,right,200,right,0.04,cross,None,m,True,0.350054979324
LS,35,weiblich,Gryffindor,die,Der Pate,40,2,6,Beliebtheit,positive,200,right,Mai,-200,left,200,right,1,cross,None,m,True,0.329653978348
LS,35,weiblich,Gryffindor,die,Der Pate,40,2,7,Freundschaft,positive,-200,right,Supermarkt,200,right,200,right,0.04,cross,None,m,True,0.316891908646
LS,35,weiblich,Gryffindor,die,Der Pate,40,2,8,Krankheit,negative,-200,right,Baum,200,right,-200,left,1,cross,None,x,True,0.363561868668
LS,35,weiblich,Gryffindor,die,Der Pate,40,2,9,Qual,negative,-200,right,Schinken,200,right,-200,left,1,cross,None,x,True,0.36455988884
LS,35,weiblich,Gryffindor,die,Der Pate,40,2,10,Ekel,negative,-200,right,Passant,200,right,-200,left,1,cross,None,x,True,0.284677028656
LS,35,weiblich,Gryffindor,die,Der Pate,40,2,11,Unfall,negative,200,right,Zucker,-200,left,200,right,0.04,cross,None,m,True,0.341717004776
LS,35,weiblich,Gryffindor,die,Der Pate,40,2,12,Dankbarkeit,positive,200,right,Bedienung,-200,left,-200,left,1,cross,None,m,False,0.468159914017
LS,35,weiblich,Gryffindor,die,Der Pate,40,2,13,Bombe,negative,-200,right,Bus,200,right,200,right,0.04,cross,None,m,True,0.561309099197
LS,35,weiblich,Gryffindor,die,Der Pate,40,2,14,Stärke,positive,200,right,Wind,-200,left,200,right,1,cross,None,m,True,0.365370035172
LS,35,weiblich,Gryffindor,die,Der Pate,40,2,15,Geisel,negative,-200,right,Projektor,200,right,200,right,1,cross,None,m,True,0.449204921722
LS,35,weiblich,Gryffindor,die,Der Pate,40,2,16,Schleim,negative,-200,right,Ausweis,200,right,-200,left,0.04,cross,None,x,True,0.323373794556
LS,35,weiblich,Gryffindor,die,Der Pate,40,2,17,Verletzung,negative,-200,right,Flughafen,200,right,200,right,0.04,cross,None,m,True,0.318027973175
LS,35,weiblich,Gryffindor,die,Der Pate,40,2,18,Einsamkeit,negative,200,right,RadiergummI,-200,left,200,right,1,cross,None,m,True,0.383948802948
LS,35,weiblich,Gryffindor,die,Der Pate,40,2,19,Herzlichkeit,positive,-200,right,Schrank,200,right,200,right,1,cross,None,m,True,0.330965995789
LS,35,weiblich,Gryffindor,die,Der Pate,40,2,20,Lebensfreude,positive,200,right,Adresse,-200,left,-200,left,0.04,cross,None,x,True,1.39286899567
LS,35,weiblich,Gryffindor,die,Der Pate,40,2,21,Reichtum,positive,200,right,April,-200,left,200,right,1,cross,None,m,True,0.310870170593
LS,35,weiblich,Gryffindor,die,Der Pate,40,2,22,Treue,positive,-200,right,Hafen,200,right,-200,left,0.04,cross,None,x,True,0.348296880722
LS,35,weiblich,Gryffindor,die,Der Pate,40,2,23,Ehrlichkeit,positive,-200,right,Zeiger,200,right,200,right,0.04,cross,None,m,True,0.433449029922
LS,35,weiblich,Gryffindor,die,Der Pate,40,2,24,Solidarität,positive,200,right,Bestellung,-200,left,-200,left,0.04,cross,None,x,True,0.558264017105
LS,35,weiblich,Gryffindor,die,Der Pate,40,3,0,Verehrung,positive,200,right,Diskette,-200,left,-200,left,1,hole,right,x,True,0.450114011765
LS,35,weiblich,Gryffindor,die,Der Pate,40,3,1,Genuss,positive,-200,right,Kleiderhaken,200,right,-200,left,1,hole,left,x,True,0.307415962219
LS,35,weiblich,Gryffindor,die,Der Pate,40,3,2,Feind,negative,-200,right,Anzug,200,right,-200,left,1,hole,right,x,True,0.361794948578
LS,35,weiblich,Gryffindor,die,Der Pate,40,3,3,Heimweh,negative,-200,right,Bildschirm,200,right,200,right,1,hole,left,m,True,0.33439207077
LS,35,weiblich,Gryffindor,die,Der Pate,40,3,4,Tod,negative,-200,right,Eintrittskarte,200,right,-200,left,1,hole,right,x,True,0.42690205574
LS,35,weiblich,Gryffindor,die,Der Pate,40,3,5,Gesundheit,positive,200,right,Kaffee,-200,left,200,right,1,hole,right,m,True,0.355197906494
LS,35,weiblich,Gryffindor,die,Der Pate,40,3,6,Übelkeit,negative,-200,right,Decke,200,right,-200,left,0.04,hole,left,x,True,0.378926038742
LS,35,weiblich,Gryffindor,die,Der Pate,40,3,7,Trauer,negative,-200,right,Flur,200,right,200,right,0.04,hole,left,m,True,0.460162878036
LS,35,weiblich,Gryffindor,die,Der Pate,40,3,8,Regen,negative,200,right,Kellner,-200,left,200,right,0.04,hole,right,m,True,0.443010807037
LS,35,weiblich,Gryffindor,die,Der Pate,40,3,9,Hässlichkeit,negative,-200,right,Gast,200,right,200,right,1,hole,left,m,True,0.579390048981
LS,35,weiblich,Gryffindor,die,Der Pate,40,3,10,Schönheit,positive,200,right,Bankkarte,-200,left,-200,left,1,hole,right,x,True,0.353599071503
LS,35,weiblich,Gryffindor,die,Der Pate,40,3,11,Neid,negative,200,right,Fernseher,-200,left,-200,left,1,hole,right,x,True,0.309387922287
LS,35,weiblich,Gryffindor,die,Der Pate,40,3,12,Entspannung,positive,200,right,Septmeber,-200,left,-200,left,1,hole,right,x,True,0.361624002457
LS,35,weiblich,Gryffindor,die,Der Pate,40,3,13,Terror,negative,-200,right,Teppich,200,right,200,right,0.04,hole,right,m,True,0.308459043503
LS,35,weiblich,Gryffindor,die,Der Pate,40,3,14,Spaß,positive,200,right,August,-200,left,200,right,0.04,hole,right,m,True,0.339614868164
LS,35,weiblich,Gryffindor,die,Der Pate,40,3,15,Hilfsbereitschaft,positive,-200,right,Koch,200,right,-200,left,0.04,hole,right,x,True,0.694036960602
LS,35,weiblich,Gryffindor,die,Der Pate,40,3,16,Zuverlässigkeit,positive,-200,right,Zuschauer,200,right,-200,left,0.04,hole,left,x,True,0.420581102371
LS,35,weiblich,Gryffindor,die,Der Pate,40,3,17,Frohsinn,positive,-200,right,Berg,200,right,200,right,1,hole,left,m,True,0.302432060242
LS,35,weiblich,Gryffindor,die,Der Pate,40,3,18,Attraktivität,positive,200,right,Bahnhof,-200,left,200,right,0.04,hole,right,m,True,0.431371927261
LS,35,weiblich,Gryffindor,die,Der Pate,40,3,19,Sicherheit,positive,-200,right,Pass,200,right,200,right,1,hole,left,m,True,0.33572101593
LS,35,weiblich,Gryffindor,die,Der Pate,40,3,20,Kraft,positive,200,right,Tag,-200,left,200,right,0.04,hole,left,m,True,0.390054941177
LS,35,weiblich,Gryffindor,die,Der Pate,40,3,21,Leidenschaft,positive,-200,right,Keller,200,right,200,right,0.04,hole,left,m,True,0.360960006714
LS,35,weiblich,Gryffindor,die,Der Pate,40,3,22,Unterstützung,positive,200,right,Brille,-200,left,200,right,1,hole,left,m,True,0.345094919205
LS,35,weiblich,Gryffindor,die,Der Pate,40,3,23,Höflichkeit,positive,200,right,Rock,-200,left,-200,left,0.04,hole,left,x,True,0.354119062424
LS,35,weiblich,Gryffindor,die,Der Pate,40,3,24,Rücksichtnahme,positive,-200,right,Herr,200,right,-200,left,1,hole,right,x,True,0.339555025101
