subject,age,sex,house,nutella,movie,temperature,block,trial,cue_cond,cue_valence,cue_cond_pos,cue_cond_side,cue_neutral,cue_neutral_pos,cue_neutral_side,target_pos,target_side,duration,fixation,fixation_direction,response,correct,rt
NF,18,männlich,Ravenclaw,das,Pulp Fiction,40,0,0,Krieg,negative,200,right,Supermarkt,-200,left,-200,left,1,cross,None,x,True,0.378569841385
NF,18,männlich,Ravenclaw,das,Pulp Fiction,40,0,1,Schock,negative,200,right,Beschreibung,-200,left,-200,left,1,cross,None,m,False,0.41383600235
NF,18,männlich,Ravenclaw,das,Pulp Fiction,40,0,2,Freiheit,positive,-200,right,Oktober,200,right,-200,left,0.04,cross,None,x,True,0.412367105484
NF,18,männlich,Ravenclaw,das,Pulp Fiction,40,0,3,Müll,negative,200,right,Apotheke,-200,left,200,right,0.04,cross,None,m,True,0.39753484726
NF,18,männlich,Ravenclaw,das,Pulp Fiction,40,0,4,Schatz,positive,-200,right,Zug,200,right,200,right,0.04,cross,None,m,True,0.360673904419
NF,18,männlich,Ravenclaw,das,Pulp Fiction,40,0,5,Genuss,positive,-200,right,Wind,200,right,-200,left,1,cross,None,x,True,0.30762386322
NF,18,männlich,Ravenclaw,das,Pulp Fiction,40,0,6,Liebe,positive,200,right,Bahnhof,-200,left,200,right,0.04,cross,None,m,True,0.382308959961
NF,18,männlich,Ravenclaw,das,Pulp Fiction,40,0,7,Schrott,negative,-200,right,Sessel,200,right,200,right,1,cross,None,m,True,0.349848031998
NF,18,männlich,Ravenclaw,das,Pulp Fiction,40,0,8,Dankbarkeit,positive,200,right,Februar,-200,left,-200,left,0.04,cross,None,x,True,0.437690973282
NF,18,männlich,Ravenclaw,das,Pulp Fiction,40,0,9,Heimweh,negative,200,right,Bluse,-200,left,200,right,0.04,cross,None,m,True,0.427284002304
NF,18,männlich,Ravenclaw,das,Pulp Fiction,40,0,10,Gerechtigkeit,positive,200,right,Bibliothek,-200,left,-200,left,0.04,cross,None,x,True,0.346396923065
NF,18,männlich,Ravenclaw,das,Pulp Fiction,40,0,11,Optimismus,positive,200,right,März,-200,left,-200,left,0.04,cross,None,x,True,0.315129995346
NF,18,männlich,Ravenclaw,das,Pulp Fiction,40,0,12,Terror,negative,200,right,Hut,-200,left,200,right,0.04,cross,None,x,False,0.915958881378
NF,18,männlich,Ravenclaw,das,Pulp Fiction,40,0,13,Spaß,positive,-200,right,Adresse,200,right,-200,left,0.04,cross,None,x,True,0.339317083359
NF,18,männlich,Ravenclaw,das,Pulp Fiction,40,0,14,Sympathie,positive,200,right,Stuhl,-200,left,-200,left,0.04,cross,None,x,True,0.346945047379
NF,18,männlich,Ravenclaw,das,Pulp Fiction,40,0,15,Krankheit,negative,200,right,Einwohner,-200,left,-200,left,0.04,cross,None,x,True,0.527346849442
NF,18,männlich,Ravenclaw,das,Pulp Fiction,40,0,16,Schrei,negative,-200,right,Platz,200,right,200,right,0.04,cross,None,m,True,0.345314025879
NF,18,männlich,Ravenclaw,das,Pulp Fiction,40,0,17,Verehrung,positive,200,right,Flughafen,-200,left,200,right,1,cross,None,m,True,0.370921134949
NF,18,männlich,Ravenclaw,das,Pulp Fiction,40,0,18,Geisel,negative,-200,right,Kakao,200,right,-200,left,1,cross,None,x,True,0.357250928879
NF,18,männlich,Ravenclaw,das,Pulp Fiction,40,0,19,Lebensfreude,positive,200,right,Park,-200,left,-200,left,1,cross,None,x,True,0.332778215408
NF,18,männlich,Ravenclaw,das,Pulp Fiction,40,0,20,Mut,positive,-200,right,Brille,200,right,-200,left,0.04,cross,None,x,True,0.317705869675
NF,18,männlich,Ravenclaw,das,Pulp Fiction,40,0,21,Hilfsbereitschaft,positive,200,right,Septmeber,-200,left,-200,left,0.04,cross,None,x,True,0.371458053589
NF,18,männlich,Ravenclaw,das,Pulp Fiction,40,0,22,Vergnügen,positive,-200,right,Fußboden,200,right,-200,left,0.04,cross,None,x,True,0.354109048843
NF,18,männlich,Ravenclaw,das,Pulp Fiction,40,0,23,Glück,positive,200,right,Berg,-200,left,200,right,1,cross,None,m,True,0.359133005142
NF,18,männlich,Ravenclaw,das,Pulp Fiction,40,0,24,Unglück,negative,200,right,Laden,-200,left,200,right,0.04,cross,None,m,True,0.36194896698
NF,18,männlich,Ravenclaw,das,Pulp Fiction,40,1,0,Treue,positive,200,right,Füller,-200,left,-200,left,0.04,hole,right,x,True,0.38800406456
NF,18,männlich,Ravenclaw,das,Pulp Fiction,40,1,1,Sturz,negative,200,right,Ausweis,-200,left,-200,left,1,hole,right,x,True,0.336011886597
NF,18,männlich,Ravenclaw,das,Pulp Fiction,40,1,2,Rache,negative,200,right,Tag,-200,left,-200,left,1,hole,left,x,True,0.34622502327
NF,18,männlich,Ravenclaw,das,Pulp Fiction,40,1,3,Wohlbefinden,positive,200,right,Diskette,-200,left,-200,left,0.04,hole,left,x,True,0.287743091583
NF,18,männlich,Ravenclaw,das,Pulp Fiction,40,1,4,Angst,negative,-200,right,RadiergummI,200,right,200,right,1,hole,right,m,True,0.322743177414
NF,18,männlich,Ravenclaw,das,Pulp Fiction,40,1,5,Unfall,negative,-200,right,Kleiderhaken,200,right,200,right,0.04,hole,right,m,True,0.379055023193
NF,18,männlich,Ravenclaw,das,Pulp Fiction,40,1,6,Panik,negative,-200,right,Kunde,200,right,-200,left,0.04,hole,right,x,True,0.355445146561
NF,18,männlich,Ravenclaw,das,Pulp Fiction,40,1,7,Mord,negative,200,right,Tee,-200,left,-200,left,1,hole,left,x,True,0.244616985321
NF,18,männlich,Ravenclaw,das,Pulp Fiction,40,1,8,Belohnung,positive,-200,right,November,200,right,200,right,1,hole,left,m,True,0.307954072952
NF,18,männlich,Ravenclaw,das,Pulp Fiction,40,1,9,Depression,negative,200,right,Wagen,-200,left,200,right,1,hole,right,m,True,0.329339981079
NF,18,männlich,Ravenclaw,das,Pulp Fiction,40,1,10,Ehrlichkeit,positive,-200,right,Bus,200,right,200,right,1,hole,left,m,True,0.35796380043
NF,18,männlich,Ravenclaw,das,Pulp Fiction,40,1,11,Schmerz,negative,200,right,Juni,-200,left,-200,left,1,hole,right,x,True,0.317710876465
NF,18,männlich,Ravenclaw,das,Pulp Fiction,40,1,12,Trauer,negative,200,right,Tisch,-200,left,-200,left,0.04,hole,left,x,True,0.37565612793
NF,18,männlich,Ravenclaw,das,Pulp Fiction,40,1,13,Attraktivität,positive,200,right,Zuschauer,-200,left,-200,left,0.04,hole,left,x,True,0.336745023727
NF,18,männlich,Ravenclaw,das,Pulp Fiction,40,1,14,Feind,negative,-200,right,Pullover,200,right,200,right,1,hole,right,m,True,0.480419874191
NF,18,männlich,Ravenclaw,das,Pulp Fiction,40,1,15,Entspannung,positive,200,right,Zeiger,-200,left,-200,left,1,hole,left,x,True,0.483949899673
NF,18,männlich,Ravenclaw,das,Pulp Fiction,40,1,16,Totschlag,negative,200,right,Balkon,-200,left,-200,left,0.04,hole,left,x,True,0.319043874741
NF,18,männlich,Ravenclaw,das,Pulp Fiction,40,1,17,Harmonie,positive,200,right,Bank,-200,left,200,right,1,hole,right,m,True,0.643340110779
NF,18,männlich,Ravenclaw,das,Pulp Fiction,40,1,18,Sucht,negative,-200,right,Dolmetscherin,200,right,200,right,1,hole,right,m,True,0.323453187943
NF,18,männlich,Ravenclaw,das,Pulp Fiction,40,1,19,Rücksichtnahme,positive,-200,right,Passant,200,right,-200,left,1,hole,left,x,True,0.320761919022
NF,18,männlich,Ravenclaw,das,Pulp Fiction,40,1,20,Bombe,negative,200,right,Monitor,-200,left,200,right,0.04,hole,left,m,True,0.432318925858
NF,18,männlich,Ravenclaw,das,Pulp Fiction,40,1,21,Gefängnis,negative,-200,right,Kugelschrieber,200,right,200,right,1,hole,right,m,True,0.328020095825
NF,18,männlich,Ravenclaw,das,Pulp Fiction,40,1,22,Sicherheit,positive,200,right,Anruf,-200,left,200,right,1,hole,right,m,True,0.364082098007
NF,18,männlich,Ravenclaw,das,Pulp Fiction,40,1,23,Dummheit,negative,200,right,Eintrittskarte,-200,left,-200,left,1,hole,right,x,True,0.354588985443
NF,18,männlich,Ravenclaw,das,Pulp Fiction,40,1,24,Neid,negative,200,right,Bestellung,-200,left,200,right,0.04,hole,right,m,True,0.30123090744
NF,18,männlich,Ravenclaw,das,Pulp Fiction,40,2,0,Freundschaft,positive,-200,right,Löffel,200,right,200,right,1,cross,None,m,True,0.321820020676
NF,18,männlich,Ravenclaw,das,Pulp Fiction,40,2,1,Verzweiflung,negative,-200,right,Zucker,200,right,-200,left,0.04,cross,None,x,True,0.525325059891
NF,18,männlich,Ravenclaw,das,Pulp Fiction,40,2,2,Hass,negative,-200,right,Pass,200,right,200,right,0.04,cross,None,m,True,0.339174985886
NF,18,männlich,Ravenclaw,das,Pulp Fiction,40,2,3,Wunde,negative,200,right,Schlüssel,-200,left,-200,left,0.04,cross,None,x,True,0.37410402298
NF,18,männlich,Ravenclaw,das,Pulp Fiction,40,2,4,Armut,negative,200,right,Bankkarte,-200,left,200,right,1,cross,None,m,True,0.404761075974
NF,18,männlich,Ravenclaw,das,Pulp Fiction,40,2,5,Koma,negative,-200,right,Gast,200,right,-200,left,0.04,cross,None,x,True,0.320395946503
NF,18,männlich,Ravenclaw,das,Pulp Fiction,40,2,6,Lachen,positive,200,right,Drucker,-200,left,200,right,1,cross,None,m,True,0.38646197319
NF,18,männlich,Ravenclaw,das,Pulp Fiction,40,2,7,Pessimismus,negative,-200,right,Geburtstag,200,right,200,right,1,cross,None,m,True,0.342046976089
NF,18,männlich,Ravenclaw,das,Pulp Fiction,40,2,8,Hässlichkeit,negative,200,right,Baum,-200,left,200,right,1,cross,None,m,True,0.372055053711
NF,18,männlich,Ravenclaw,das,Pulp Fiction,40,2,9,Einsamkeit,negative,200,right,Decke,-200,left,-200,left,1,cross,None,x,True,0.347164154053
NF,18,männlich,Ravenclaw,das,Pulp Fiction,40,2,10,Waffe,negative,200,right,Name,-200,left,200,right,1,cross,None,m,True,0.346040010452
NF,18,männlich,Ravenclaw,das,Pulp Fiction,40,2,11,Regen,negative,-200,right,Garten,200,right,200,right,1,cross,None,m,True,0.380665063858
NF,18,männlich,Ravenclaw,das,Pulp Fiction,40,2,12,Gestank,negative,200,right,Juli,-200,left,-200,left,1,cross,None,x,True,0.314093112946
NF,18,männlich,Ravenclaw,das,Pulp Fiction,40,2,13,Reichtum,positive,-200,right,Anzug,200,right,200,right,1,cross,None,m,True,0.33467912674
NF,18,männlich,Ravenclaw,das,Pulp Fiction,40,2,14,Leid,negative,-200,right,Rock,200,right,200,right,1,cross,None,m,True,0.635017871857
NF,18,männlich,Ravenclaw,das,Pulp Fiction,40,2,15,Anerkennung,positive,200,right,Fernseher,-200,left,-200,left,1,cross,None,x,True,0.309062004089
NF,18,männlich,Ravenclaw,das,Pulp Fiction,40,2,16,Ekel,negative,200,right,Computer,-200,left,200,right,0.04,cross,None,m,True,0.295980930328
NF,18,männlich,Ravenclaw,das,Pulp Fiction,40,2,17,Verletzung,negative,200,right,Bildschirm,-200,left,200,right,0.04,cross,None,m,True,0.35654592514
NF,18,männlich,Ravenclaw,das,Pulp Fiction,40,2,18,Schleim,negative,200,right,Apfel,-200,left,-200,left,0.04,cross,None,x,True,0.35001206398
NF,18,männlich,Ravenclaw,das,Pulp Fiction,40,2,19,Zufriedenheit,positive,200,right,Keller,-200,left,200,right,1,cross,None,m,True,0.30918097496
NF,18,männlich,Ravenclaw,das,Pulp Fiction,40,2,20,Trennung,negative,-200,right,Apfelsine,200,right,200,right,0.04,cross,None,m,True,0.455581903458
NF,18,männlich,Ravenclaw,das,Pulp Fiction,40,2,21,Folter,negative,-200,right,Projektor,200,right,200,right,1,cross,None,m,True,0.458079099655
NF,18,männlich,Ravenclaw,das,Pulp Fiction,40,2,22,Droge,negative,200,right,Strumpf,-200,left,-200,left,0.04,cross,None,x,True,0.443291902542
NF,18,männlich,Ravenclaw,das,Pulp Fiction,40,2,23,Unterstützung,positive,200,right,Cola,-200,left,200,right,0.04,cross,None,m,True,0.612030982971
NF,18,männlich,Ravenclaw,das,Pulp Fiction,40,2,24,Frohsinn,positive,200,right,Dienstag,-200,left,-200,left,1,cross,None,x,True,0.428156137466
NF,18,männlich,Ravenclaw,das,Pulp Fiction,40,3,0,Schönheit,positive,-200,right,Dose,200,right,200,right,0.04,hole,right,m,True,0.407298088074
NF,18,männlich,Ravenclaw,das,Pulp Fiction,40,3,1,Tapferkeit,positive,200,right,Herr,-200,left,200,right,1,hole,right,m,True,0.325614929199
NF,18,männlich,Ravenclaw,das,Pulp Fiction,40,3,2,Anschlag,negative,-200,right,Mai,200,right,-200,left,0.04,hole,right,x,True,0.372004985809
NF,18,männlich,Ravenclaw,das,Pulp Fiction,40,3,3,Qual,negative,-200,right,Koch,200,right,200,right,0.04,hole,left,m,True,0.333436965942
NF,18,männlich,Ravenclaw,das,Pulp Fiction,40,3,4,Tod,negative,200,right,Finger,-200,left,200,right,1,hole,right,m,True,0.367142915726
NF,18,männlich,Ravenclaw,das,Pulp Fiction,40,3,5,Geschenk,positive,200,right,April,-200,left,200,right,1,hole,left,m,True,0.39044713974
NF,18,männlich,Ravenclaw,das,Pulp Fiction,40,3,6,Übelkeit,negative,200,right,Hafen,-200,left,200,right,0.04,hole,right,m,True,0.44463801384
NF,18,männlich,Ravenclaw,das,Pulp Fiction,40,3,7,Eleganz,positive,200,right,Eile,-200,left,200,right,0.04,hole,right,m,True,0.387612104416
NF,18,männlich,Ravenclaw,das,Pulp Fiction,40,3,8,Horror,negative,200,right,Fahrschein,-200,left,-200,left,0.04,hole,right,x,True,0.402667999268
NF,18,männlich,Ravenclaw,das,Pulp Fiction,40,3,9,Wut,negative,200,right,Marktplatz,-200,left,200,right,1,hole,right,m,True,0.505581140518
NF,18,männlich,Ravenclaw,das,Pulp Fiction,40,3,10,Kostbarkeit,positive,-200,right,Kaffee,200,right,200,right,1,hole,right,m,True,0.331157922745
NF,18,männlich,Ravenclaw,das,Pulp Fiction,40,3,11,Erfolg,positive,-200,right,Bedienung,200,right,200,right,1,hole,right,m,True,0.358242034912
NF,18,männlich,Ravenclaw,das,Pulp Fiction,40,3,12,Gesundheit,positive,-200,right,Flur,200,right,-200,left,0.04,hole,right,x,True,0.375298976898
NF,18,männlich,Ravenclaw,das,Pulp Fiction,40,3,13,Höflichkeit,positive,200,right,Locher,-200,left,200,right,1,hole,right,m,True,0.362260103226
NF,18,männlich,Ravenclaw,das,Pulp Fiction,40,3,14,Bewunderung,positive,-200,right,Kellner,200,right,200,right,1,hole,left,m,True,0.356198072433
NF,18,männlich,Ravenclaw,das,Pulp Fiction,40,3,15,Wohlstand,positive,-200,right,August,200,right,-200,left,1,hole,right,x,True,0.653592824936
NF,18,männlich,Ravenclaw,das,Pulp Fiction,40,3,16,Frieden,positive,200,right,Schrank,-200,left,-200,left,1,hole,left,x,True,0.296469926834
NF,18,männlich,Ravenclaw,das,Pulp Fiction,40,3,17,Solidarität,positive,200,right,Markt,-200,left,200,right,1,hole,right,m,True,0.358011007309
NF,18,männlich,Ravenclaw,das,Pulp Fiction,40,3,18,Kraft,positive,200,right,Fuß,-200,left,-200,left,1,hole,right,x,True,0.304207801819
NF,18,männlich,Ravenclaw,das,Pulp Fiction,40,3,19,Bereicherung,positive,200,right,Brücke,-200,left,-200,left,0.04,hole,left,x,True,0.394516944885
NF,18,männlich,Ravenclaw,das,Pulp Fiction,40,3,20,Zuverlässigkeit,positive,-200,right,Schinken,200,right,-200,left,0.04,hole,left,x,True,0.334422111511
NF,18,männlich,Ravenclaw,das,Pulp Fiction,40,3,21,Stärke,positive,-200,right,Dusche,200,right,200,right,1,hole,right,m,True,0.344965934753
NF,18,männlich,Ravenclaw,das,Pulp Fiction,40,3,22,Leidenschaft,positive,-200,right,Dezember,200,right,-200,left,0.04,hole,right,x,True,0.352246046066
NF,18,männlich,Ravenclaw,das,Pulp Fiction,40,3,23,Beliebtheit,positive,-200,right,Teppich,200,right,200,right,1,hole,left,m,True,0.344645023346
NF,18,männlich,Ravenclaw,das,Pulp Fiction,40,3,24,Herzlichkeit,positive,200,right,Januar,-200,left,-200,left,0.04,hole,right,x,True,0.375570058823
