subject,age,sex,house,nutella,movie,temperature,block,trial,cue_cond,cue_valence,cue_cond_pos,cue_cond_side,cue_neutral,cue_neutral_pos,cue_neutral_side,target_pos,target_side,duration,fixation,fixation_direction,response,correct,rt
TTTT,27,männlich,Hufflepuff,die,Der Pate,38,0,0,Schock,negative,-200,right,Monitor,200,right,200,right,0.04,cross,None,m,True,0.37548768241
TTTT,27,männlich,Hufflepuff,die,Der Pate,38,0,1,Frohsinn,positive,-200,right,Oktober,200,right,-200,left,0.04,cross,None,x,True,0.397172491997
TTTT,27,männlich,Hufflepuff,die,Der Pate,38,0,2,Feind,negative,-200,right,Anruf,200,right,-200,left,1,cross,None,m,False,0.277654147707
TTTT,27,männlich,Hufflepuff,die,Der Pate,38,0,3,Leid,negative,200,right,Septmeber,-200,left,200,right,0.04,cross,None,m,True,0.349010806531
TTTT,27,männlich,Hufflepuff,die,Der Pate,38,0,4,Qual,negative,200,right,Kleiderhaken,-200,left,200,right,0.04,cross,None,m,True,0.369899440557
TTTT,27,männlich,Hufflepuff,die,Der Pate,38,0,5,Pessimismus,negative,200,right,Bedienung,-200,left,200,right,0.04,cross,None,m,True,0.471615860239
TTTT,27,männlich,Hufflepuff,die,Der Pate,38,0,6,Wunde,negative,-200,right,Kakao,200,right,-200,left,0.04,cross,None,x,True,0.381886717863
TTTT,27,männlich,Hufflepuff,die,Der Pate,38,0,7,Totschlag,negative,200,right,Markt,-200,left,200,right,0.04,cross,None,m,True,0.393175020814
TTTT,27,männlich,Hufflepuff,die,Der Pate,38,0,8,Gerechtigkeit,positive,-200,right,Beschreibung,200,right,200,right,0.04,cross,None,m,True,0.398530533537
TTTT,27,männlich,Hufflepuff,die,Der Pate,38,0,9,Reichtum,positive,200,right,Juni,-200,left,200,right,0.04,cross,None,x,False,0.247194420546
TTTT,27,männlich,Hufflepuff,die,Der Pate,38,0,10,Dummheit,negative,200,right,Tisch,-200,left,200,right,0.04,cross,None,m,True,0.366562617943
TTTT,27,männlich,Hufflepuff,die,Der Pate,38,0,11,Vergnügen,positive,-200,right,Kaffee,200,right,-200,left,0.04,cross,None,x,True,0.486523499712
TTTT,27,männlich,Hufflepuff,die,Der Pate,38,0,12,Unterstützung,positive,-200,right,Apotheke,200,right,-200,left,1,cross,None,x,True,0.442965406924
TTTT,27,männlich,Hufflepuff,die,Der Pate,38,0,13,Einsamkeit,negative,200,right,Dezember,-200,left,-200,left,1,cross,None,x,True,0.388122962788
TTTT,27,männlich,Hufflepuff,die,Der Pate,38,0,14,Anschlag,negative,-200,right,Keller,200,right,-200,left,0.04,cross,None,x,True,0.395026966929
TTTT,27,männlich,Hufflepuff,die,Der Pate,38,0,15,Schatz,positive,200,right,Sessel,-200,left,200,right,1,cross,None,m,True,0.333753087558
TTTT,27,männlich,Hufflepuff,die,Der Pate,38,0,16,Rücksichtnahme,positive,-200,right,Bankkarte,200,right,200,right,1,cross,None,m,True,0.39997431729
TTTT,27,männlich,Hufflepuff,die,Der Pate,38,0,17,Schleim,negative,-200,right,Supermarkt,200,right,200,right,0.04,cross,None,m,True,0.400778790005
TTTT,27,männlich,Hufflepuff,die,Der Pate,38,0,18,Frieden,positive,-200,right,Kunde,200,right,200,right,0.04,cross,None,m,True,0.366007862613
TTTT,27,männlich,Hufflepuff,die,Der Pate,38,0,19,Sucht,negative,-200,right,Schinken,200,right,200,right,1,cross,None,m,True,0.354663453065
TTTT,27,männlich,Hufflepuff,die,Der Pate,38,0,20,Unfall,negative,200,right,Flur,-200,left,200,right,1,cross,None,m,True,0.382301992737
TTTT,27,männlich,Hufflepuff,die,Der Pate,38,0,21,Wut,negative,200,right,Wagen,-200,left,-200,left,1,cross,None,x,True,0.413675642572
TTTT,27,männlich,Hufflepuff,die,Der Pate,38,0,22,Genuss,positive,-200,right,Februar,200,right,-200,left,1,cross,None,x,True,0.374104351737
TTTT,27,männlich,Hufflepuff,die,Der Pate,38,0,23,Beliebtheit,positive,200,right,Schlüssel,-200,left,200,right,1,cross,None,m,True,0.40285674762
TTTT,27,männlich,Hufflepuff,die,Der Pate,38,0,24,Depression,negative,200,right,Laden,-200,left,200,right,1,cross,None,m,True,0.385575992055
TTTT,27,männlich,Hufflepuff,die,Der Pate,38,1,0,Harmonie,positive,-200,right,Geburtstag,200,right,200,right,0.04,hole,right,m,True,0.363691249862
TTTT,27,männlich,Hufflepuff,die,Der Pate,38,1,1,Dankbarkeit,positive,-200,right,Rock,200,right,200,right,1,hole,right,m,True,0.36583361309
TTTT,27,männlich,Hufflepuff,die,Der Pate,38,1,2,Tapferkeit,positive,-200,right,Kugelschrieber,200,right,-200,left,1,hole,right,x,True,0.333487563767
TTTT,27,männlich,Hufflepuff,die,Der Pate,38,1,3,Horror,negative,-200,right,Hut,200,right,-200,left,1,hole,left,x,True,0.449490882456
TTTT,27,männlich,Hufflepuff,die,Der Pate,38,1,4,Gestank,negative,-200,right,Löffel,200,right,-200,left,1,hole,left,x,True,0.561888693832
TTTT,27,männlich,Hufflepuff,die,Der Pate,38,1,5,Schmerz,negative,200,right,Hafen,-200,left,200,right,0.04,hole,left,m,True,0.402089811862
TTTT,27,männlich,Hufflepuff,die,Der Pate,38,1,6,Schrei,negative,-200,right,April,200,right,-200,left,1,hole,left,x,True,0.346331469715
TTTT,27,männlich,Hufflepuff,die,Der Pate,38,1,7,Zuverlässigkeit,positive,-200,right,Cola,200,right,-200,left,0.04,hole,right,x,True,0.438466918655
TTTT,27,männlich,Hufflepuff,die,Der Pate,38,1,8,Attraktivität,positive,-200,right,Flughafen,200,right,-200,left,0.04,hole,left,x,True,0.938517099246
TTTT,27,männlich,Hufflepuff,die,Der Pate,38,1,9,Geisel,negative,200,right,Platz,-200,left,200,right,0.04,hole,right,m,True,0.391494557261
TTTT,27,männlich,Hufflepuff,die,Der Pate,38,1,10,Waffe,negative,200,right,Kellner,-200,left,-200,left,1,hole,right,x,True,0.563622893766
TTTT,27,männlich,Hufflepuff,die,Der Pate,38,1,11,Freiheit,positive,-200,right,Apfelsine,200,right,-200,left,1,hole,right,m,False,0.443355789408
TTTT,27,männlich,Hufflepuff,die,Der Pate,38,1,12,Leidenschaft,positive,200,right,Bluse,-200,left,200,right,0.04,hole,right,m,True,0.409422525205
TTTT,27,männlich,Hufflepuff,die,Der Pate,38,1,13,Krankheit,negative,-200,right,Pullover,200,right,200,right,1,hole,left,m,True,0.511918525212
TTTT,27,männlich,Hufflepuff,die,Der Pate,38,1,14,Eleganz,positive,-200,right,Finger,200,right,200,right,1,hole,right,m,True,0.335866210982
TTTT,27,männlich,Hufflepuff,die,Der Pate,38,1,15,Treue,positive,200,right,Baum,-200,left,-200,left,1,hole,left,m,False,0.628538633697
TTTT,27,männlich,Hufflepuff,die,Der Pate,38,1,16,Glück,positive,-200,right,Fußboden,200,right,200,right,1,hole,left,m,True,0.360144220293
TTTT,27,männlich,Hufflepuff,die,Der Pate,38,1,17,Droge,negative,-200,right,Diskette,200,right,-200,left,1,hole,right,x,True,0.395205563866
TTTT,27,männlich,Hufflepuff,die,Der Pate,38,1,18,Erfolg,positive,-200,right,Fahrschein,200,right,200,right,1,hole,right,m,True,0.330209217966
TTTT,27,männlich,Hufflepuff,die,Der Pate,38,1,19,Wohlstand,positive,200,right,Park,-200,left,200,right,0.04,hole,right,m,True,0.336837820709
TTTT,27,männlich,Hufflepuff,die,Der Pate,38,1,20,Belohnung,positive,-200,right,Dolmetscherin,200,right,-200,left,1,hole,left,x,True,0.298550684936
TTTT,27,männlich,Hufflepuff,die,Der Pate,38,1,21,Solidarität,positive,-200,right,Adresse,200,right,-200,left,0.04,hole,left,x,True,0.3961163247
TTTT,27,männlich,Hufflepuff,die,Der Pate,38,1,22,Rache,negative,200,right,Bildschirm,-200,left,-200,left,0.04,hole,left,x,True,0.445611158386
TTTT,27,männlich,Hufflepuff,die,Der Pate,38,1,23,Angst,negative,-200,right,Berg,200,right,200,right,1,hole,right,m,True,0.331453463994
TTTT,27,männlich,Hufflepuff,die,Der Pate,38,1,24,Regen,negative,-200,right,Dienstag,200,right,200,right,0.04,hole,left,m,True,0.399699705653
TTTT,27,männlich,Hufflepuff,die,Der Pate,38,2,0,Höflichkeit,positive,200,right,Pass,-200,left,-200,left,0.04,cross,None,x,True,0.329139617272
TTTT,27,männlich,Hufflepuff,die,Der Pate,38,2,1,Ehrlichkeit,positive,-200,right,Fuß,200,right,200,right,0.04,cross,None,m,True,0.393543276004
TTTT,27,männlich,Hufflepuff,die,Der Pate,38,2,2,Gefängnis,negative,200,right,Bestellung,-200,left,-200,left,0.04,cross,None,x,True,0.360523144715
TTTT,27,männlich,Hufflepuff,die,Der Pate,38,2,3,Kostbarkeit,positive,200,right,Passant,-200,left,-200,left,0.04,cross,None,x,True,0.460568584502
TTTT,27,männlich,Hufflepuff,die,Der Pate,38,2,4,Heimweh,negative,200,right,August,-200,left,200,right,1,cross,None,m,True,0.308231621981
TTTT,27,männlich,Hufflepuff,die,Der Pate,38,2,5,Hässlichkeit,negative,-200,right,Decke,200,right,-200,left,0.04,cross,None,x,True,0.397013651207
TTTT,27,männlich,Hufflepuff,die,Der Pate,38,2,6,Geschenk,positive,-200,right,Herr,200,right,200,right,0.04,cross,None,m,True,0.341891064309
TTTT,27,männlich,Hufflepuff,die,Der Pate,38,2,7,Folter,negative,200,right,Wind,-200,left,200,right,1,cross,None,m,True,0.284053578973
TTTT,27,männlich,Hufflepuff,die,Der Pate,38,2,8,Spaß,positive,200,right,Zuschauer,-200,left,200,right,0.04,cross,None,x,False,0.328593950719
TTTT,27,männlich,Hufflepuff,die,Der Pate,38,2,9,Tod,negative,-200,right,März,200,right,-200,left,1,cross,None,x,True,0.351963174529
TTTT,27,männlich,Hufflepuff,die,Der Pate,38,2,10,Krieg,negative,-200,right,Füller,200,right,200,right,0.04,cross,None,m,True,0.381177075207
TTTT,27,männlich,Hufflepuff,die,Der Pate,38,2,11,Gesundheit,positive,-200,right,Januar,200,right,200,right,0.04,cross,None,m,True,0.348441828042
TTTT,27,männlich,Hufflepuff,die,Der Pate,38,2,12,Sturz,negative,200,right,Teppich,-200,left,200,right,0.04,cross,None,m,True,0.387920264155
TTTT,27,männlich,Hufflepuff,die,Der Pate,38,2,13,Sicherheit,positive,-200,right,Dusche,200,right,200,right,1,cross,None,m,True,0.354110280052
TTTT,27,männlich,Hufflepuff,die,Der Pate,38,2,14,Trauer,negative,-200,right,Bank,200,right,200,right,1,cross,None,m,True,0.377506766468
TTTT,27,männlich,Hufflepuff,die,Der Pate,38,2,15,Schrott,negative,200,right,Name,-200,left,-200,left,0.04,cross,None,x,True,0.362774956971
TTTT,27,männlich,Hufflepuff,die,Der Pate,38,2,16,Verehrung,positive,-200,right,Juli,200,right,-200,left,1,cross,None,x,True,0.364984885789
TTTT,27,männlich,Hufflepuff,die,Der Pate,38,2,17,Verletzung,negative,-200,right,Bibliothek,200,right,200,right,0.04,cross,None,m,True,0.364046862349
TTTT,27,männlich,Hufflepuff,die,Der Pate,38,2,18,Koma,negative,-200,right,Anzug,200,right,-200,left,0.04,cross,None,x,True,0.401118991897
TTTT,27,männlich,Hufflepuff,die,Der Pate,38,2,19,Liebe,positive,200,right,Einwohner,-200,left,200,right,1,cross,None,m,True,0.34154888615
TTTT,27,männlich,Hufflepuff,die,Der Pate,38,2,20,Anerkennung,positive,200,right,Eile,-200,left,-200,left,1,cross,None,x,True,0.360987810418
TTTT,27,männlich,Hufflepuff,die,Der Pate,38,2,21,Hass,negative,-200,right,Gast,200,right,-200,left,1,cross,None,x,True,0.374864175916
TTTT,27,männlich,Hufflepuff,die,Der Pate,38,2,22,Bereicherung,positive,200,right,Ausweis,-200,left,-200,left,1,cross,None,x,True,0.382899816148
TTTT,27,männlich,Hufflepuff,die,Der Pate,38,2,23,Zufriedenheit,positive,200,right,Tag,-200,left,200,right,0.04,cross,None,m,True,0.42628919147
TTTT,27,männlich,Hufflepuff,die,Der Pate,38,2,24,Trennung,negative,-200,right,RadiergummI,200,right,200,right,0.04,cross,None,m,True,0.443474721164
TTTT,27,männlich,Hufflepuff,die,Der Pate,38,3,0,Unglück,negative,200,right,Brille,-200,left,-200,left,1,hole,right,x,True,0.340052946471
TTTT,27,männlich,Hufflepuff,die,Der Pate,38,3,1,Sympathie,positive,-200,right,Eintrittskarte,200,right,-200,left,1,hole,left,x,True,0.370661240071
TTTT,27,männlich,Hufflepuff,die,Der Pate,38,3,2,Entspannung,positive,-200,right,Dose,200,right,-200,left,1,hole,left,x,True,0.325108955614
TTTT,27,männlich,Hufflepuff,die,Der Pate,38,3,3,Terror,negative,-200,right,Brücke,200,right,-200,left,0.04,hole,right,x,True,0.363727997057
TTTT,27,männlich,Hufflepuff,die,Der Pate,38,3,4,Stärke,positive,200,right,Koch,-200,left,200,right,1,hole,right,m,True,0.334902108647
TTTT,27,männlich,Hufflepuff,die,Der Pate,38,3,5,Ekel,negative,-200,right,Tee,200,right,-200,left,0.04,hole,right,x,True,0.3570417054
TTTT,27,männlich,Hufflepuff,die,Der Pate,38,3,6,Optimismus,positive,200,right,November,-200,left,200,right,1,hole,left,m,True,0.308110319078
TTTT,27,männlich,Hufflepuff,die,Der Pate,38,3,7,Müll,negative,-200,right,Mai,200,right,200,right,0.04,hole,right,m,True,0.373878736049
TTTT,27,männlich,Hufflepuff,die,Der Pate,38,3,8,Mord,negative,200,right,Garten,-200,left,200,right,1,hole,left,m,True,0.350100954063
TTTT,27,männlich,Hufflepuff,die,Der Pate,38,3,9,Hilfsbereitschaft,positive,200,right,Drucker,-200,left,200,right,1,hole,left,m,True,0.345255546272
TTTT,27,männlich,Hufflepuff,die,Der Pate,38,3,10,Übelkeit,negative,200,right,Fernseher,-200,left,-200,left,0.04,hole,left,x,True,0.402759942226
TTTT,27,männlich,Hufflepuff,die,Der Pate,38,3,11,Herzlichkeit,positive,200,right,Zug,-200,left,-200,left,1,hole,left,x,True,0.359982219525
TTTT,27,männlich,Hufflepuff,die,Der Pate,38,3,12,Schönheit,positive,200,right,Zucker,-200,left,-200,left,1,hole,right,x,True,0.39958195854
TTTT,27,männlich,Hufflepuff,die,Der Pate,38,3,13,Bombe,negative,200,right,Computer,-200,left,200,right,0.04,hole,right,m,True,0.367167552933
TTTT,27,männlich,Hufflepuff,die,Der Pate,38,3,14,Panik,negative,200,right,Zeiger,-200,left,-200,left,0.04,hole,right,x,True,0.341825079173
TTTT,27,männlich,Hufflepuff,die,Der Pate,38,3,15,Neid,negative,200,right,Balkon,-200,left,-200,left,0.04,hole,right,x,True,0.413044233806
TTTT,27,männlich,Hufflepuff,die,Der Pate,38,3,16,Armut,negative,-200,right,Schrank,200,right,200,right,1,hole,left,x,False,0.303225004114
TTTT,27,männlich,Hufflepuff,die,Der Pate,38,3,17,Lachen,positive,-200,right,Bus,200,right,-200,left,1,hole,left,x,True,0.40137147624
TTTT,27,männlich,Hufflepuff,die,Der Pate,38,3,18,Verzweiflung,negative,-200,right,Strumpf,200,right,-200,left,0.04,hole,right,x,True,0.435725151561
TTTT,27,männlich,Hufflepuff,die,Der Pate,38,3,19,Lebensfreude,positive,-200,right,Marktplatz,200,right,200,right,1,hole,right,m,True,0.375872137956
TTTT,27,männlich,Hufflepuff,die,Der Pate,38,3,20,Mut,positive,200,right,Locher,-200,left,200,right,0.04,hole,right,m,True,0.366325148381
TTTT,27,männlich,Hufflepuff,die,Der Pate,38,3,21,Kraft,positive,200,right,Stuhl,-200,left,200,right,1,hole,right,m,True,0.329882845283
TTTT,27,männlich,Hufflepuff,die,Der Pate,38,3,22,Wohlbefinden,positive,-200,right,Projektor,200,right,200,right,1,hole,right,m,True,0.381337890401
TTTT,27,männlich,Hufflepuff,die,Der Pate,38,3,23,Freundschaft,positive,-200,right,Bahnhof,200,right,200,right,1,hole,left,m,True,0.418125135824
TTTT,27,männlich,Hufflepuff,die,Der Pate,38,3,24,Bewunderung,positive,-200,right,Apfel,200,right,200,right,1,hole,left,m,True,0.382434755564
