subject,age,sex,house,nutella,movie,temperature,block,trial,cue_cond,cue_valence,cue_cond_pos,cue_cond_side,cue_neutral,cue_neutral_pos,cue_neutral_side,target_pos,target_side,duration,fixation,fixation_direction,response,correct,rt
Bo Red,28,weiblich,Hufflepuff,die,Der Pate,39,0,0,Hass,negative,200,right,Flughafen,-200,left,-200,left,1,cross,None,x,True,0.313849101774
Bo Red,28,weiblich,Hufflepuff,die,Der Pate,39,0,1,Mut,positive,-200,right,Beschreibung,200,right,200,right,1,cross,None,m,True,0.30885354802
Bo Red,28,weiblich,Hufflepuff,die,Der Pate,39,0,2,Sicherheit,positive,200,right,Tisch,-200,left,200,right,0.04,cross,None,m,True,0.375260485336
Bo Red,28,weiblich,Hufflepuff,die,Der Pate,39,0,3,Freundschaft,positive,200,right,Kleiderhaken,-200,left,200,right,1,cross,None,m,True,0.299371752888
Bo Red,28,weiblich,Hufflepuff,die,Der Pate,39,0,4,Glück,positive,-200,right,Eintrittskarte,200,right,200,right,0.04,cross,None,m,True,0.35840685945
Bo Red,28,weiblich,Hufflepuff,die,Der Pate,39,0,5,Schönheit,positive,200,right,Cola,-200,left,-200,left,0.04,cross,None,x,True,0.335199241526
Bo Red,28,weiblich,Hufflepuff,die,Der Pate,39,0,6,Herzlichkeit,positive,200,right,August,-200,left,200,right,1,cross,None,m,True,0.29454175476
Bo Red,28,weiblich,Hufflepuff,die,Der Pate,39,0,7,Schock,negative,-200,right,Rock,200,right,200,right,0.04,cross,None,m,True,0.34726001136
Bo Red,28,weiblich,Hufflepuff,die,Der Pate,39,0,8,Optimismus,positive,-200,right,Drucker,200,right,200,right,1,cross,None,m,True,0.324626508169
Bo Red,28,weiblich,Hufflepuff,die,Der Pate,39,0,9,Depression,negative,200,right,Bibliothek,-200,left,-200,left,0.04,cross,None,x,True,0.381841673516
Bo Red,28,weiblich,Hufflepuff,die,Der Pate,39,0,10,Vergnügen,positive,-200,right,Adresse,200,right,-200,left,0.04,cross,None,x,True,0.386310922913
Bo Red,28,weiblich,Hufflepuff,die,Der Pate,39,0,11,Belohnung,positive,-200,right,Balkon,200,right,200,right,1,cross,None,m,True,0.305941876955
Bo Red,28,weiblich,Hufflepuff,die,Der Pate,39,0,12,Rücksichtnahme,positive,-200,right,Zeiger,200,right,200,right,1,cross,None,m,True,0.289245510474
Bo Red,28,weiblich,Hufflepuff,die,Der Pate,39,0,13,Qual,negative,-200,right,Stuhl,200,right,-200,left,1,cross,None,m,False,0.281360017136
Bo Red,28,weiblich,Hufflepuff,die,Der Pate,39,0,14,Hässlichkeit,negative,-200,right,Kaffee,200,right,200,right,0.04,cross,None,m,True,0.337206076831
Bo Red,28,weiblich,Hufflepuff,die,Der Pate,39,0,15,Genuss,positive,200,right,Mai,-200,left,-200,left,0.04,cross,None,x,True,0.320459134877
Bo Red,28,weiblich,Hufflepuff,die,Der Pate,39,0,16,Panik,negative,200,right,Eile,-200,left,-200,left,1,cross,None,x,True,0.307065610774
Bo Red,28,weiblich,Hufflepuff,die,Der Pate,39,0,17,Angst,negative,-200,right,Kunde,200,right,-200,left,0.04,cross,None,x,True,0.364303297363
Bo Red,28,weiblich,Hufflepuff,die,Der Pate,39,0,18,Eleganz,positive,-200,right,Kakao,200,right,-200,left,1,cross,None,x,True,0.315778888762
Bo Red,28,weiblich,Hufflepuff,die,Der Pate,39,0,19,Bereicherung,positive,-200,right,Strumpf,200,right,-200,left,0.04,cross,None,x,True,0.33896003291
Bo Red,28,weiblich,Hufflepuff,die,Der Pate,39,0,20,Wunde,negative,-200,right,Apfel,200,right,-200,left,1,cross,None,x,True,0.295147085562
Bo Red,28,weiblich,Hufflepuff,die,Der Pate,39,0,21,Zufriedenheit,positive,-200,right,Passant,200,right,-200,left,0.04,cross,None,x,True,0.368314202875
Bo Red,28,weiblich,Hufflepuff,die,Der Pate,39,0,22,Wohlbefinden,positive,-200,right,Einwohner,200,right,-200,left,1,cross,None,x,True,0.353728194721
Bo Red,28,weiblich,Hufflepuff,die,Der Pate,39,0,23,Zuverlässigkeit,positive,200,right,Name,-200,left,-200,left,0.04,cross,None,x,True,0.400056107901
Bo Red,28,weiblich,Hufflepuff,die,Der Pate,39,0,24,Wut,negative,-200,right,Bestellung,200,right,-200,left,1,cross,None,x,True,0.305523046292
Bo Red,28,weiblich,Hufflepuff,die,Der Pate,39,1,0,Freiheit,positive,-200,right,Schrank,200,right,200,right,1,hole,left,m,True,0.362959085032
Bo Red,28,weiblich,Hufflepuff,die,Der Pate,39,1,1,Sympathie,positive,200,right,Tag,-200,left,-200,left,0.04,hole,left,x,True,0.3619009424
Bo Red,28,weiblich,Hufflepuff,die,Der Pate,39,1,2,Unfall,negative,-200,right,Fahrschein,200,right,-200,left,0.04,hole,left,x,True,0.337038938887
Bo Red,28,weiblich,Hufflepuff,die,Der Pate,39,1,3,Kraft,positive,-200,right,Markt,200,right,200,right,0.04,hole,right,m,True,0.372346050106
Bo Red,28,weiblich,Hufflepuff,die,Der Pate,39,1,4,Frohsinn,positive,-200,right,Schinken,200,right,-200,left,0.04,hole,left,x,True,0.305274117738
Bo Red,28,weiblich,Hufflepuff,die,Der Pate,39,1,5,Tapferkeit,positive,200,right,Diskette,-200,left,200,right,1,hole,right,m,True,0.342737815343
Bo Red,28,weiblich,Hufflepuff,die,Der Pate,39,1,6,Harmonie,positive,200,right,Dienstag,-200,left,-200,left,1,hole,right,x,True,0.35193828214
Bo Red,28,weiblich,Hufflepuff,die,Der Pate,39,1,7,Hilfsbereitschaft,positive,-200,right,Locher,200,right,-200,left,0.04,hole,left,x,True,0.366393899545
Bo Red,28,weiblich,Hufflepuff,die,Der Pate,39,1,8,Rache,negative,-200,right,Park,200,right,200,right,1,hole,right,m,True,0.301847600378
Bo Red,28,weiblich,Hufflepuff,die,Der Pate,39,1,9,Krankheit,negative,-200,right,Bahnhof,200,right,-200,left,1,hole,left,x,True,0.295811288059
Bo Red,28,weiblich,Hufflepuff,die,Der Pate,39,1,10,Pessimismus,negative,-200,right,Februar,200,right,200,right,1,hole,right,m,True,0.302383784205
Bo Red,28,weiblich,Hufflepuff,die,Der Pate,39,1,11,Schleim,negative,200,right,Projektor,-200,left,200,right,0.04,hole,left,m,True,0.438086018898
Bo Red,28,weiblich,Hufflepuff,die,Der Pate,39,1,12,Mord,negative,-200,right,Apfelsine,200,right,-200,left,0.04,hole,left,x,True,0.372016120702
Bo Red,28,weiblich,Hufflepuff,die,Der Pate,39,1,13,Lachen,positive,-200,right,Computer,200,right,200,right,1,hole,left,m,True,0.333714759909
Bo Red,28,weiblich,Hufflepuff,die,Der Pate,39,1,14,Heimweh,negative,-200,right,Füller,200,right,200,right,1,hole,left,m,True,0.320276191458
Bo Red,28,weiblich,Hufflepuff,die,Der Pate,39,1,15,Entspannung,positive,-200,right,Fernseher,200,right,200,right,0.04,hole,right,m,True,0.389953968115
Bo Red,28,weiblich,Hufflepuff,die,Der Pate,39,1,16,Dummheit,negative,200,right,Ausweis,-200,left,-200,left,1,hole,left,x,True,0.338466523215
Bo Red,28,weiblich,Hufflepuff,die,Der Pate,39,1,17,Anerkennung,positive,200,right,März,-200,left,200,right,0.04,hole,left,m,True,0.41966572497
Bo Red,28,weiblich,Hufflepuff,die,Der Pate,39,1,18,Solidarität,positive,200,right,Keller,-200,left,-200,left,1,hole,left,x,True,0.351027916186
Bo Red,28,weiblich,Hufflepuff,die,Der Pate,39,1,19,Stärke,positive,200,right,Decke,-200,left,-200,left,1,hole,right,x,True,0.341427188367
Bo Red,28,weiblich,Hufflepuff,die,Der Pate,39,1,20,Bombe,negative,-200,right,Hafen,200,right,-200,left,0.04,hole,left,x,True,0.427641306072
Bo Red,28,weiblich,Hufflepuff,die,Der Pate,39,1,21,Schrei,negative,-200,right,Finger,200,right,-200,left,0.04,hole,left,x,True,0.389925124124
Bo Red,28,weiblich,Hufflepuff,die,Der Pate,39,1,22,Treue,positive,-200,right,Zucker,200,right,200,right,0.04,hole,right,m,True,0.331975423731
Bo Red,28,weiblich,Hufflepuff,die,Der Pate,39,1,23,Regen,negative,200,right,Kellner,-200,left,-200,left,1,hole,right,m,False,0.279569709674
Bo Red,28,weiblich,Hufflepuff,die,Der Pate,39,1,24,Anschlag,negative,-200,right,Wind,200,right,200,right,0.04,hole,right,m,True,0.358966355212
Bo Red,28,weiblich,Hufflepuff,die,Der Pate,39,2,0,Dankbarkeit,positive,200,right,Dezember,-200,left,-200,left,1,cross,None,x,True,0.385111326352
Bo Red,28,weiblich,Hufflepuff,die,Der Pate,39,2,1,Lebensfreude,positive,-200,right,Kugelschrieber,200,right,200,right,1,cross,None,m,True,0.339016931131
Bo Red,28,weiblich,Hufflepuff,die,Der Pate,39,2,2,Unterstützung,positive,-200,right,Bedienung,200,right,200,right,0.04,cross,None,m,True,0.423989568837
Bo Red,28,weiblich,Hufflepuff,die,Der Pate,39,2,3,Tod,negative,200,right,Fuß,-200,left,200,right,1,cross,None,m,True,0.354073137976
Bo Red,28,weiblich,Hufflepuff,die,Der Pate,39,2,4,Bewunderung,positive,-200,right,Juli,200,right,-200,left,1,cross,None,x,True,0.351023173891
Bo Red,28,weiblich,Hufflepuff,die,Der Pate,39,2,5,Beliebtheit,positive,200,right,Septmeber,-200,left,200,right,0.04,cross,None,m,True,0.491825670935
Bo Red,28,weiblich,Hufflepuff,die,Der Pate,39,2,6,Erfolg,positive,-200,right,Anruf,200,right,-200,left,0.04,cross,None,x,True,0.34840942733
Bo Red,28,weiblich,Hufflepuff,die,Der Pate,39,2,7,Spaß,positive,-200,right,Zuschauer,200,right,200,right,0.04,cross,None,m,True,0.351918525063
Bo Red,28,weiblich,Hufflepuff,die,Der Pate,39,2,8,Trauer,negative,-200,right,Berg,200,right,200,right,0.04,cross,None,x,False,0.317988422699
Bo Red,28,weiblich,Hufflepuff,die,Der Pate,39,2,9,Einsamkeit,negative,200,right,Apotheke,-200,left,-200,left,0.04,cross,None,m,False,0.436052708887
Bo Red,28,weiblich,Hufflepuff,die,Der Pate,39,2,10,Kostbarkeit,positive,-200,right,Wagen,200,right,-200,left,0.04,cross,None,x,True,0.375579350628
Bo Red,28,weiblich,Hufflepuff,die,Der Pate,39,2,11,Schatz,positive,-200,right,Dose,200,right,200,right,1,cross,None,m,True,0.411238516681
Bo Red,28,weiblich,Hufflepuff,die,Der Pate,39,2,12,Attraktivität,positive,200,right,Dolmetscherin,-200,left,200,right,1,cross,None,m,True,0.354365528561
Bo Red,28,weiblich,Hufflepuff,die,Der Pate,39,2,13,Liebe,positive,200,right,Sessel,-200,left,200,right,1,cross,None,m,True,0.382261295803
Bo Red,28,weiblich,Hufflepuff,die,Der Pate,39,2,14,Gerechtigkeit,positive,200,right,RadiergummI,-200,left,-200,left,0.04,cross,None,x,True,0.346511646174
Bo Red,28,weiblich,Hufflepuff,die,Der Pate,39,2,15,Geschenk,positive,-200,right,Pass,200,right,-200,left,1,cross,None,x,True,0.414633424021
Bo Red,28,weiblich,Hufflepuff,die,Der Pate,39,2,16,Verehrung,positive,-200,right,Tee,200,right,-200,left,1,cross,None,x,True,0.385003061965
Bo Red,28,weiblich,Hufflepuff,die,Der Pate,39,2,17,Reichtum,positive,-200,right,November,200,right,200,right,0.04,cross,None,m,True,0.490802299231
Bo Red,28,weiblich,Hufflepuff,die,Der Pate,39,2,18,Gesundheit,positive,-200,right,Dusche,200,right,-200,left,0.04,cross,None,x,True,0.39509413857
Bo Red,28,weiblich,Hufflepuff,die,Der Pate,39,2,19,Frieden,positive,-200,right,Bankkarte,200,right,200,right,0.04,cross,None,m,True,0.388249007054
Bo Red,28,weiblich,Hufflepuff,die,Der Pate,39,2,20,Horror,negative,200,right,Oktober,-200,left,200,right,1,cross,None,m,True,0.382349013351
Bo Red,28,weiblich,Hufflepuff,die,Der Pate,39,2,21,Ehrlichkeit,positive,-200,right,Schlüssel,200,right,-200,left,0.04,cross,None,x,True,0.434124108404
Bo Red,28,weiblich,Hufflepuff,die,Der Pate,39,2,22,Droge,negative,-200,right,Monitor,200,right,200,right,0.04,cross,None,m,True,0.361559160054
Bo Red,28,weiblich,Hufflepuff,die,Der Pate,39,2,23,Leidenschaft,positive,-200,right,Anzug,200,right,200,right,1,cross,None,m,True,0.365343263373
Bo Red,28,weiblich,Hufflepuff,die,Der Pate,39,2,24,Neid,negative,200,right,Bus,-200,left,-200,left,1,cross,None,x,True,0.467987434939
Bo Red,28,weiblich,Hufflepuff,die,Der Pate,39,3,0,Totschlag,negative,-200,right,Flur,200,right,-200,left,0.04,hole,left,x,True,0.394792263396
Bo Red,28,weiblich,Hufflepuff,die,Der Pate,39,3,1,Sturz,negative,200,right,Brille,-200,left,200,right,1,hole,right,m,True,0.386696959846
Bo Red,28,weiblich,Hufflepuff,die,Der Pate,39,3,2,Sucht,negative,-200,right,Löffel,200,right,200,right,0.04,hole,left,m,True,0.471511547454
Bo Red,28,weiblich,Hufflepuff,die,Der Pate,39,3,3,Geisel,negative,-200,right,Garten,200,right,200,right,0.04,hole,left,m,True,0.333512851037
Bo Red,28,weiblich,Hufflepuff,die,Der Pate,39,3,4,Wohlstand,positive,200,right,Hut,-200,left,200,right,0.04,hole,left,m,True,0.352725368924
Bo Red,28,weiblich,Hufflepuff,die,Der Pate,39,3,5,Terror,negative,-200,right,Bildschirm,200,right,200,right,1,hole,right,m,True,0.430190253071
Bo Red,28,weiblich,Hufflepuff,die,Der Pate,39,3,6,Höflichkeit,positive,-200,right,Geburtstag,200,right,-200,left,1,hole,left,x,True,0.356637888588
Bo Red,28,weiblich,Hufflepuff,die,Der Pate,39,3,7,Müll,negative,200,right,Laden,-200,left,200,right,0.04,hole,left,m,True,0.607507359236
Bo Red,28,weiblich,Hufflepuff,die,Der Pate,39,3,8,Verletzung,negative,-200,right,Januar,200,right,-200,left,1,hole,right,x,True,0.387649603188
Bo Red,28,weiblich,Hufflepuff,die,Der Pate,39,3,9,Koma,negative,200,right,Juni,-200,left,200,right,0.04,hole,left,m,True,0.364534839988
Bo Red,28,weiblich,Hufflepuff,die,Der Pate,39,3,10,Waffe,negative,-200,right,Herr,200,right,200,right,1,hole,right,m,True,0.247258431278
Bo Red,28,weiblich,Hufflepuff,die,Der Pate,39,3,11,Armut,negative,200,right,Fußboden,-200,left,200,right,1,hole,left,m,True,0.317030642182
Bo Red,28,weiblich,Hufflepuff,die,Der Pate,39,3,12,Übelkeit,negative,-200,right,Bluse,200,right,-200,left,0.04,hole,right,x,True,0.375337139703
Bo Red,28,weiblich,Hufflepuff,die,Der Pate,39,3,13,Folter,negative,200,right,Baum,-200,left,200,right,0.04,hole,left,m,True,0.365126736462
Bo Red,28,weiblich,Hufflepuff,die,Der Pate,39,3,14,Gestank,negative,200,right,Koch,-200,left,-200,left,0.04,hole,left,x,True,0.277760436758
Bo Red,28,weiblich,Hufflepuff,die,Der Pate,39,3,15,Feind,negative,-200,right,Bank,200,right,-200,left,1,hole,left,x,True,0.249895094894
Bo Red,28,weiblich,Hufflepuff,die,Der Pate,39,3,16,Schmerz,negative,200,right,Brücke,-200,left,200,right,0.04,hole,left,m,True,0.352124780416
Bo Red,28,weiblich,Hufflepuff,die,Der Pate,39,3,17,Trennung,negative,200,right,Zug,-200,left,200,right,0.04,hole,left,m,True,0.474005175754
Bo Red,28,weiblich,Hufflepuff,die,Der Pate,39,3,18,Verzweiflung,negative,200,right,Marktplatz,-200,left,200,right,0.04,hole,left,m,True,0.459238991141
Bo Red,28,weiblich,Hufflepuff,die,Der Pate,39,3,19,Schrott,negative,-200,right,Gast,200,right,200,right,1,hole,left,m,True,0.385816622525
Bo Red,28,weiblich,Hufflepuff,die,Der Pate,39,3,20,Krieg,negative,-200,right,Platz,200,right,-200,left,1,hole,left,x,True,0.313778375275
Bo Red,28,weiblich,Hufflepuff,die,Der Pate,39,3,21,Leid,negative,-200,right,Supermarkt,200,right,-200,left,0.04,hole,left,x,True,0.396889187396
Bo Red,28,weiblich,Hufflepuff,die,Der Pate,39,3,22,Gefängnis,negative,200,right,Pullover,-200,left,-200,left,1,hole,left,x,True,0.329416204244
Bo Red,28,weiblich,Hufflepuff,die,Der Pate,39,3,23,Ekel,negative,-200,right,April,200,right,200,right,1,hole,left,m,True,0.283849298954
Bo Red,28,weiblich,Hufflepuff,die,Der Pate,39,3,24,Unglück,negative,-200,right,Teppich,200,right,200,right,0.04,hole,right,m,True,0.441772132181
