subject,age,sex,house,nutella,movie,temperature,block,trial,cue_cond,cue_valence,cue_cond_pos,cue_cond_side,cue_neutral,cue_neutral_pos,cue_neutral_side,target_pos,target_side,duration,fixation,fixation_direction,response,correct,rt
CS,25,weiblich,Slytherin,die,Pulp Fiction,20,0,0,Verzweiflung,negative,-200,right,Bluse,200,right,-200,left,0.04,cross,None,x,True,0.456807136536
CS,25,weiblich,Slytherin,die,Pulp Fiction,20,0,1,Trennung,negative,200,right,Baum,-200,left,200,right,0.04,cross,None,m,True,0.326658010483
CS,25,weiblich,Slytherin,die,Pulp Fiction,20,0,2,Einsamkeit,negative,-200,right,Rock,200,right,200,right,1,cross,None,m,True,0.340309143066
CS,25,weiblich,Slytherin,die,Pulp Fiction,20,0,3,Totschlag,negative,-200,right,Gast,200,right,200,right,1,cross,None,m,True,0.349884986877
CS,25,weiblich,Slytherin,die,Pulp Fiction,20,0,4,Verletzung,negative,-200,right,Zucker,200,right,200,right,0.04,cross,None,m,True,0.509308099747
CS,25,weiblich,Slytherin,die,Pulp Fiction,20,0,5,Glück,positive,200,right,Finger,-200,left,200,right,0.04,cross,None,m,True,0.327398061752
CS,25,weiblich,Slytherin,die,Pulp Fiction,20,0,6,Rache,negative,200,right,Adresse,-200,left,200,right,1,cross,None,m,True,0.439812898636
CS,25,weiblich,Slytherin,die,Pulp Fiction,20,0,7,Müll,negative,-200,right,Teppich,200,right,-200,left,1,cross,None,x,True,0.373652219772
CS,25,weiblich,Slytherin,die,Pulp Fiction,20,0,8,Stärke,positive,-200,right,Februar,200,right,200,right,1,cross,None,m,True,0.322658061981
CS,25,weiblich,Slytherin,die,Pulp Fiction,20,0,9,Schock,negative,200,right,Schrank,-200,left,-200,left,0.04,cross,None,x,True,0.364461898804
CS,25,weiblich,Slytherin,die,Pulp Fiction,20,0,10,Schrei,negative,-200,right,Balkon,200,right,200,right,1,cross,None,m,True,0.361376047134
CS,25,weiblich,Slytherin,die,Pulp Fiction,20,0,11,Tapferkeit,positive,200,right,Dienstag,-200,left,-200,left,1,cross,None,x,True,0.360741853714
CS,25,weiblich,Slytherin,die,Pulp Fiction,20,0,12,Übelkeit,negative,-200,right,Kleiderhaken,200,right,200,right,1,cross,None,m,True,0.487053155899
CS,25,weiblich,Slytherin,die,Pulp Fiction,20,0,13,Folter,negative,200,right,Januar,-200,left,-200,left,0.04,cross,None,x,True,0.429291009903
CS,25,weiblich,Slytherin,die,Pulp Fiction,20,0,14,Qual,negative,-200,right,Oktober,200,right,200,right,0.04,cross,None,m,True,0.393988847733
CS,25,weiblich,Slytherin,die,Pulp Fiction,20,0,15,Attraktivität,positive,-200,right,Dusche,200,right,200,right,0.04,cross,None,m,True,0.446676015854
CS,25,weiblich,Slytherin,die,Pulp Fiction,20,0,16,Geschenk,positive,-200,right,Fuß,200,right,-200,left,1,cross,None,x,True,0.331878185272
CS,25,weiblich,Slytherin,die,Pulp Fiction,20,0,17,Wunde,negative,-200,right,Wind,200,right,-200,left,1,cross,None,x,True,0.305381059647
CS,25,weiblich,Slytherin,die,Pulp Fiction,20,0,18,Sympathie,positive,200,right,Apfel,-200,left,200,right,0.04,cross,None,m,True,0.41544008255
CS,25,weiblich,Slytherin,die,Pulp Fiction,20,0,19,Entspannung,positive,200,right,Pass,-200,left,-200,left,1,cross,None,x,True,0.335211992264
CS,25,weiblich,Slytherin,die,Pulp Fiction,20,0,20,Leid,negative,200,right,Kaffee,-200,left,200,right,1,cross,None,m,True,0.384006023407
CS,25,weiblich,Slytherin,die,Pulp Fiction,20,0,21,Rücksichtnahme,positive,-200,right,November,200,right,200,right,1,cross,None,m,True,0.34697508812
CS,25,weiblich,Slytherin,die,Pulp Fiction,20,0,22,Trauer,negative,200,right,Keller,-200,left,-200,left,0.04,cross,None,x,True,0.310697078705
CS,25,weiblich,Slytherin,die,Pulp Fiction,20,0,23,Pessimismus,negative,-200,right,Flur,200,right,-200,left,0.04,cross,None,x,True,0.373178005219
CS,25,weiblich,Slytherin,die,Pulp Fiction,20,0,24,Krieg,negative,200,right,Monitor,-200,left,-200,left,0.04,cross,None,x,True,0.367598056793
CS,25,weiblich,Slytherin,die,Pulp Fiction,20,1,0,Anschlag,negative,200,right,Dolmetscherin,-200,left,200,right,1,hole,right,m,True,0.351270914078
CS,25,weiblich,Slytherin,die,Pulp Fiction,20,1,1,Hilfsbereitschaft,positive,200,right,Platz,-200,left,200,right,1,hole,right,m,True,0.324013948441
CS,25,weiblich,Slytherin,die,Pulp Fiction,20,1,2,Depression,negative,-200,right,Park,200,right,-200,left,1,hole,left,x,True,0.247317075729
CS,25,weiblich,Slytherin,die,Pulp Fiction,20,1,3,Bombe,negative,-200,right,Hut,200,right,-200,left,0.04,hole,left,x,True,0.384649038315
CS,25,weiblich,Slytherin,die,Pulp Fiction,20,1,4,Unterstützung,positive,-200,right,Dose,200,right,200,right,0.04,hole,right,m,True,0.45561003685
CS,25,weiblich,Slytherin,die,Pulp Fiction,20,1,5,Harmonie,positive,200,right,Mai,-200,left,200,right,0.04,hole,left,m,True,0.348232984543
CS,25,weiblich,Slytherin,die,Pulp Fiction,20,1,6,Reichtum,positive,-200,right,Eintrittskarte,200,right,200,right,0.04,hole,right,m,True,0.493641853333
CS,25,weiblich,Slytherin,die,Pulp Fiction,20,1,7,Mut,positive,-200,right,Dezember,200,right,-200,left,0.04,hole,right,x,True,0.380534887314
CS,25,weiblich,Slytherin,die,Pulp Fiction,20,1,8,Treue,positive,-200,right,Fußboden,200,right,-200,left,0.04,hole,right,x,True,0.366172075272
CS,25,weiblich,Slytherin,die,Pulp Fiction,20,1,9,Schmerz,negative,-200,right,Einwohner,200,right,-200,left,0.04,hole,left,x,True,0.325372934341
CS,25,weiblich,Slytherin,die,Pulp Fiction,20,1,10,Wohlstand,positive,-200,right,Ausweis,200,right,-200,left,1,hole,left,x,True,0.381613016129
CS,25,weiblich,Slytherin,die,Pulp Fiction,20,1,11,Frieden,positive,-200,right,Fahrschein,200,right,-200,left,1,hole,right,x,True,0.294786930084
CS,25,weiblich,Slytherin,die,Pulp Fiction,20,1,12,Angst,negative,200,right,Tee,-200,left,200,right,1,hole,left,m,True,0.333761930466
CS,25,weiblich,Slytherin,die,Pulp Fiction,20,1,13,Gefängnis,negative,200,right,Brücke,-200,left,200,right,1,hole,right,m,True,0.392185926437
CS,25,weiblich,Slytherin,die,Pulp Fiction,20,1,14,Tod,negative,200,right,Eile,-200,left,200,right,1,hole,right,m,True,0.365999937057
CS,25,weiblich,Slytherin,die,Pulp Fiction,20,1,15,Liebe,positive,200,right,Juli,-200,left,-200,left,1,hole,left,x,True,0.284404039383
CS,25,weiblich,Slytherin,die,Pulp Fiction,20,1,16,Genuss,positive,200,right,Anruf,-200,left,-200,left,0.04,hole,left,x,True,0.331732034683
CS,25,weiblich,Slytherin,die,Pulp Fiction,20,1,17,Frohsinn,positive,200,right,Brille,-200,left,-200,left,0.04,hole,right,x,True,0.327933073044
CS,25,weiblich,Slytherin,die,Pulp Fiction,20,1,18,Terror,negative,-200,right,Schinken,200,right,200,right,1,hole,left,m,True,0.383631944656
CS,25,weiblich,Slytherin,die,Pulp Fiction,20,1,19,Armut,negative,200,right,Bahnhof,-200,left,200,right,1,hole,left,m,True,0.60885310173
CS,25,weiblich,Slytherin,die,Pulp Fiction,20,1,20,Ekel,negative,-200,right,Juni,200,right,200,right,1,hole,left,m,True,0.345849990845
CS,25,weiblich,Slytherin,die,Pulp Fiction,20,1,21,Ehrlichkeit,positive,-200,right,Locher,200,right,200,right,1,hole,right,m,True,0.358094930649
CS,25,weiblich,Slytherin,die,Pulp Fiction,20,1,22,Gesundheit,positive,200,right,Stuhl,-200,left,200,right,0.04,hole,left,m,True,0.530544996262
CS,25,weiblich,Slytherin,die,Pulp Fiction,20,1,23,Sucht,negative,200,right,Decke,-200,left,-200,left,0.04,hole,right,x,True,0.432845830917
CS,25,weiblich,Slytherin,die,Pulp Fiction,20,1,24,Waffe,negative,200,right,Bestellung,-200,left,200,right,1,hole,right,m,True,0.386304855347
CS,25,weiblich,Slytherin,die,Pulp Fiction,20,2,0,Vergnügen,positive,-200,right,Bedienung,200,right,200,right,1,cross,None,m,True,0.339129924774
CS,25,weiblich,Slytherin,die,Pulp Fiction,20,2,1,Schatz,positive,200,right,Bildschirm,-200,left,200,right,0.04,cross,None,m,True,0.393116950989
CS,25,weiblich,Slytherin,die,Pulp Fiction,20,2,2,Hässlichkeit,negative,200,right,Tisch,-200,left,200,right,1,cross,None,m,True,0.333301067352
CS,25,weiblich,Slytherin,die,Pulp Fiction,20,2,3,Lebensfreude,positive,-200,right,Flughafen,200,right,200,right,1,cross,None,m,True,0.339636087418
CS,25,weiblich,Slytherin,die,Pulp Fiction,20,2,4,Droge,negative,-200,right,Koch,200,right,-200,left,1,cross,None,x,True,0.308653116226
CS,25,weiblich,Slytherin,die,Pulp Fiction,20,2,5,Sturz,negative,200,right,Supermarkt,-200,left,200,right,0.04,cross,None,m,True,0.358582019806
CS,25,weiblich,Slytherin,die,Pulp Fiction,20,2,6,Zuverlässigkeit,positive,-200,right,Kugelschrieber,200,right,-200,left,1,cross,None,x,True,0.345597982407
CS,25,weiblich,Slytherin,die,Pulp Fiction,20,2,7,Herzlichkeit,positive,200,right,Hafen,-200,left,200,right,1,cross,None,m,True,0.365030050278
CS,25,weiblich,Slytherin,die,Pulp Fiction,20,2,8,Schleim,negative,200,right,Berg,-200,left,200,right,0.04,cross,None,m,True,0.373162984848
CS,25,weiblich,Slytherin,die,Pulp Fiction,20,2,9,Dankbarkeit,positive,200,right,Tag,-200,left,-200,left,1,cross,None,x,True,0.288177013397
CS,25,weiblich,Slytherin,die,Pulp Fiction,20,2,10,Wohlbefinden,positive,200,right,Zeiger,-200,left,-200,left,1,cross,None,x,True,0.278393983841
CS,25,weiblich,Slytherin,die,Pulp Fiction,20,2,11,Koma,negative,-200,right,Kakao,200,right,200,right,0.04,cross,None,m,True,0.441098928452
CS,25,weiblich,Slytherin,die,Pulp Fiction,20,2,12,Schrott,negative,200,right,Markt,-200,left,200,right,1,cross,None,m,True,0.345919847488
CS,25,weiblich,Slytherin,die,Pulp Fiction,20,2,13,Kraft,positive,-200,right,Apotheke,200,right,200,right,0.04,cross,None,m,True,0.508851051331
CS,25,weiblich,Slytherin,die,Pulp Fiction,20,2,14,Panik,negative,-200,right,Pullover,200,right,200,right,1,cross,None,m,True,0.357037067413
CS,25,weiblich,Slytherin,die,Pulp Fiction,20,2,15,Schönheit,positive,200,right,Sessel,-200,left,200,right,0.04,cross,None,m,True,0.332058906555
CS,25,weiblich,Slytherin,die,Pulp Fiction,20,2,16,Bewunderung,positive,200,right,Fernseher,-200,left,-200,left,0.04,cross,None,x,True,0.459179162979
CS,25,weiblich,Slytherin,die,Pulp Fiction,20,2,17,Sicherheit,positive,-200,right,Marktplatz,200,right,200,right,1,cross,None,m,True,0.318742036819
CS,25,weiblich,Slytherin,die,Pulp Fiction,20,2,18,Spaß,positive,200,right,Wagen,-200,left,200,right,0.04,cross,None,m,True,0.313372850418
CS,25,weiblich,Slytherin,die,Pulp Fiction,20,2,19,Horror,negative,200,right,März,-200,left,200,right,1,cross,None,m,True,0.339255809784
CS,25,weiblich,Slytherin,die,Pulp Fiction,20,2,20,Zufriedenheit,positive,-200,right,Garten,200,right,-200,left,0.04,cross,None,x,True,0.383733034134
CS,25,weiblich,Slytherin,die,Pulp Fiction,20,2,21,Anerkennung,positive,-200,right,Projektor,200,right,-200,left,1,cross,None,x,True,0.448561191559
CS,25,weiblich,Slytherin,die,Pulp Fiction,20,2,22,Gerechtigkeit,positive,-200,right,Laden,200,right,-200,left,1,cross,None,x,True,0.296845912933
CS,25,weiblich,Slytherin,die,Pulp Fiction,20,2,23,Eleganz,positive,-200,right,Diskette,200,right,-200,left,1,cross,None,x,True,0.393383026123
CS,25,weiblich,Slytherin,die,Pulp Fiction,20,2,24,Hass,negative,-200,right,Septmeber,200,right,200,right,0.04,cross,None,m,True,0.448329925537
CS,25,weiblich,Slytherin,die,Pulp Fiction,20,3,0,Unglück,negative,-200,right,Name,200,right,-200,left,0.04,hole,left,x,True,0.785102128983
CS,25,weiblich,Slytherin,die,Pulp Fiction,20,3,1,Höflichkeit,positive,-200,right,Zug,200,right,200,right,0.04,hole,right,m,True,0.394865989685
CS,25,weiblich,Slytherin,die,Pulp Fiction,20,3,2,Freundschaft,positive,200,right,Bankkarte,-200,left,200,right,0.04,hole,right,m,True,0.36171913147
CS,25,weiblich,Slytherin,die,Pulp Fiction,20,3,3,Krankheit,negative,200,right,Strumpf,-200,left,200,right,0.04,hole,left,m,True,0.377543210983
CS,25,weiblich,Slytherin,die,Pulp Fiction,20,3,4,Belohnung,positive,-200,right,Computer,200,right,-200,left,0.04,hole,right,x,True,0.338797807693
CS,25,weiblich,Slytherin,die,Pulp Fiction,20,3,5,Dummheit,negative,-200,right,Zuschauer,200,right,-200,left,0.04,hole,right,x,True,0.308490037918
CS,25,weiblich,Slytherin,die,Pulp Fiction,20,3,6,Gestank,negative,200,right,Kunde,-200,left,-200,left,0.04,hole,left,x,True,0.297422885895
CS,25,weiblich,Slytherin,die,Pulp Fiction,20,3,7,Neid,negative,-200,right,Drucker,200,right,200,right,0.04,hole,left,m,True,0.320866823196
CS,25,weiblich,Slytherin,die,Pulp Fiction,20,3,8,Optimismus,positive,200,right,Apfelsine,-200,left,200,right,0.04,hole,left,m,True,0.508125066757
CS,25,weiblich,Slytherin,die,Pulp Fiction,20,3,9,Freiheit,positive,200,right,Geburtstag,-200,left,-200,left,0.04,hole,left,x,True,0.35914182663
CS,25,weiblich,Slytherin,die,Pulp Fiction,20,3,10,Unfall,negative,200,right,Herr,-200,left,-200,left,1,hole,right,x,True,0.607702970505
CS,25,weiblich,Slytherin,die,Pulp Fiction,20,3,11,Verehrung,positive,-200,right,Löffel,200,right,-200,left,1,hole,left,x,True,0.353055953979
CS,25,weiblich,Slytherin,die,Pulp Fiction,20,3,12,Heimweh,negative,200,right,Schlüssel,-200,left,-200,left,0.04,hole,left,x,True,0.402596950531
CS,25,weiblich,Slytherin,die,Pulp Fiction,20,3,13,Beliebtheit,positive,-200,right,Füller,200,right,200,right,0.04,hole,left,m,True,0.375680923462
CS,25,weiblich,Slytherin,die,Pulp Fiction,20,3,14,Kostbarkeit,positive,-200,right,August,200,right,-200,left,1,hole,right,x,True,0.335545778275
CS,25,weiblich,Slytherin,die,Pulp Fiction,20,3,15,Regen,negative,200,right,April,-200,left,200,right,0.04,hole,left,x,False,0.49855017662
CS,25,weiblich,Slytherin,die,Pulp Fiction,20,3,16,Mord,negative,-200,right,Bibliothek,200,right,200,right,0.04,hole,left,m,True,0.344967842102
CS,25,weiblich,Slytherin,die,Pulp Fiction,20,3,17,Wut,negative,200,right,RadiergummI,-200,left,200,right,0.04,hole,left,m,True,0.33976316452
CS,25,weiblich,Slytherin,die,Pulp Fiction,20,3,18,Geisel,negative,200,right,Bus,-200,left,200,right,0.04,hole,right,m,True,0.358869075775
CS,25,weiblich,Slytherin,die,Pulp Fiction,20,3,19,Erfolg,positive,200,right,Kellner,-200,left,-200,left,1,hole,right,x,True,0.300146818161
CS,25,weiblich,Slytherin,die,Pulp Fiction,20,3,20,Solidarität,positive,200,right,Passant,-200,left,-200,left,1,hole,left,x,True,0.300976037979
CS,25,weiblich,Slytherin,die,Pulp Fiction,20,3,21,Bereicherung,positive,-200,right,Cola,200,right,200,right,0.04,hole,left,m,True,0.342530965805
CS,25,weiblich,Slytherin,die,Pulp Fiction,20,3,22,Lachen,positive,200,right,Anzug,-200,left,200,right,0.04,hole,right,m,True,0.387942790985
CS,25,weiblich,Slytherin,die,Pulp Fiction,20,3,23,Leidenschaft,positive,-200,right,Beschreibung,200,right,-200,left,1,hole,left,x,True,0.442781925201
CS,25,weiblich,Slytherin,die,Pulp Fiction,20,3,24,Feind,negative,-200,right,Bank,200,right,-200,left,1,hole,left,x,True,0.32341504097
