subject,age,sex,house,nutella,movie,temperature,block,trial,cue_cond,cue_valence,cue_cond_pos,cue_cond_side,cue_neutral,cue_neutral_pos,cue_neutral_side,target_pos,target_side,duration,fixation,fixation_direction,response,correct,rt
homer,29,weiblich,Hufflepuff,die,Der Pate,40,0,0,Hilfsbereitschaft,positive,-200,right,Pullover,200,right,-200,left,1,cross,None,x,True,0.405206946656
homer,29,weiblich,Hufflepuff,die,Der Pate,40,0,1,Unterstützung,positive,200,right,Einwohner,-200,left,200,right,1,cross,None,m,True,0.362155007198
homer,29,weiblich,Hufflepuff,die,Der Pate,40,0,2,Liebe,positive,200,right,Diskette,-200,left,200,right,0.04,cross,None,m,True,0.379758183844
homer,29,weiblich,Hufflepuff,die,Der Pate,40,0,3,Kostbarkeit,positive,200,right,Zuschauer,-200,left,200,right,1,cross,None,m,True,0.370325384662
homer,29,weiblich,Hufflepuff,die,Der Pate,40,0,4,Hass,negative,-200,right,Teppich,200,right,200,right,0.04,cross,None,m,True,0.376185471192
homer,29,weiblich,Hufflepuff,die,Der Pate,40,0,5,Lebensfreude,positive,200,right,Gast,-200,left,200,right,0.04,cross,None,m,True,0.470649781637
homer,29,weiblich,Hufflepuff,die,Der Pate,40,0,6,Zuverlässigkeit,positive,200,right,Locher,-200,left,-200,left,0.04,cross,None,x,True,0.411886915565
homer,29,weiblich,Hufflepuff,die,Der Pate,40,0,7,Hässlichkeit,negative,200,right,Balkon,-200,left,200,right,1,cross,None,m,True,0.391677103937
homer,29,weiblich,Hufflepuff,die,Der Pate,40,0,8,Solidarität,positive,200,right,Fernseher,-200,left,-200,left,0.04,cross,None,x,True,0.476346286945
homer,29,weiblich,Hufflepuff,die,Der Pate,40,0,9,Tod,negative,-200,right,Berg,200,right,-200,left,0.04,cross,None,x,True,0.606353991665
homer,29,weiblich,Hufflepuff,die,Der Pate,40,0,10,Geisel,negative,200,right,Platz,-200,left,200,right,1,cross,None,m,True,0.3746037893
homer,29,weiblich,Hufflepuff,die,Der Pate,40,0,11,Totschlag,negative,200,right,Herr,-200,left,-200,left,1,cross,None,x,True,0.471684216522
homer,29,weiblich,Hufflepuff,die,Der Pate,40,0,12,Trauer,negative,-200,right,Oktober,200,right,-200,left,1,cross,None,x,True,0.405337732285
homer,29,weiblich,Hufflepuff,die,Der Pate,40,0,13,Folter,negative,-200,right,Kunde,200,right,-200,left,0.04,cross,None,x,True,0.403557698242
homer,29,weiblich,Hufflepuff,die,Der Pate,40,0,14,Verehrung,positive,200,right,März,-200,left,-200,left,1,cross,None,x,True,0.454267933965
homer,29,weiblich,Hufflepuff,die,Der Pate,40,0,15,Qual,negative,200,right,November,-200,left,-200,left,0.04,cross,None,x,True,0.460439773276
homer,29,weiblich,Hufflepuff,die,Der Pate,40,0,16,Reichtum,positive,200,right,Finger,-200,left,-200,left,0.04,cross,None,x,True,0.390442341566
homer,29,weiblich,Hufflepuff,die,Der Pate,40,0,17,Krankheit,negative,200,right,Bildschirm,-200,left,-200,left,0.04,cross,None,x,True,0.380670130253
homer,29,weiblich,Hufflepuff,die,Der Pate,40,0,18,Unfall,negative,200,right,Decke,-200,left,-200,left,1,cross,None,x,True,0.366933639161
homer,29,weiblich,Hufflepuff,die,Der Pate,40,0,19,Genuss,positive,-200,right,Tisch,200,right,200,right,0.04,cross,None,m,True,0.402702649124
homer,29,weiblich,Hufflepuff,die,Der Pate,40,0,20,Erfolg,positive,-200,right,Strumpf,200,right,200,right,1,cross,None,m,True,0.361024556682
homer,29,weiblich,Hufflepuff,die,Der Pate,40,0,21,Regen,negative,200,right,Schlüssel,-200,left,-200,left,1,cross,None,x,True,0.325917379931
homer,29,weiblich,Hufflepuff,die,Der Pate,40,0,22,Kraft,positive,-200,right,Bibliothek,200,right,-200,left,1,cross,None,x,True,0.388667443767
homer,29,weiblich,Hufflepuff,die,Der Pate,40,0,23,Unglück,negative,-200,right,Kugelschrieber,200,right,200,right,0.04,cross,None,m,True,0.388094513677
homer,29,weiblich,Hufflepuff,die,Der Pate,40,0,24,Sympathie,positive,-200,right,Fußboden,200,right,200,right,0.04,cross,None,m,True,0.37019420322
homer,29,weiblich,Hufflepuff,die,Der Pate,40,1,0,Mord,negative,-200,right,Januar,200,right,200,right,1,hole,right,m,True,0.428627931513
homer,29,weiblich,Hufflepuff,die,Der Pate,40,1,1,Bereicherung,positive,200,right,Name,-200,left,200,right,1,hole,left,m,True,0.354646067135
homer,29,weiblich,Hufflepuff,die,Der Pate,40,1,2,Verletzung,negative,-200,right,Wagen,200,right,200,right,1,hole,left,m,True,0.389481794089
homer,29,weiblich,Hufflepuff,die,Der Pate,40,1,3,Krieg,negative,200,right,Geburtstag,-200,left,200,right,0.04,hole,right,m,True,0.379236225039
homer,29,weiblich,Hufflepuff,die,Der Pate,40,1,4,Gerechtigkeit,positive,-200,right,Mai,200,right,200,right,0.04,hole,left,m,True,0.361880396493
homer,29,weiblich,Hufflepuff,die,Der Pate,40,1,5,Geschenk,positive,-200,right,Adresse,200,right,200,right,1,hole,left,m,True,0.355761107057
homer,29,weiblich,Hufflepuff,die,Der Pate,40,1,6,Stärke,positive,-200,right,Bedienung,200,right,-200,left,0.04,hole,right,x,True,0.42879625503
homer,29,weiblich,Hufflepuff,die,Der Pate,40,1,7,Wunde,negative,200,right,August,-200,left,200,right,1,hole,left,m,True,0.312408478931
homer,29,weiblich,Hufflepuff,die,Der Pate,40,1,8,Entspannung,positive,200,right,Februar,-200,left,200,right,1,hole,right,m,True,0.426636110991
homer,29,weiblich,Hufflepuff,die,Der Pate,40,1,9,Lachen,positive,200,right,Eintrittskarte,-200,left,200,right,1,hole,left,m,True,0.529106426984
homer,29,weiblich,Hufflepuff,die,Der Pate,40,1,10,Spaß,positive,-200,right,RadiergummI,200,right,-200,left,1,hole,left,x,True,0.441897385754
homer,29,weiblich,Hufflepuff,die,Der Pate,40,1,11,Glück,positive,-200,right,Hut,200,right,200,right,0.04,hole,left,m,True,0.329405140132
homer,29,weiblich,Hufflepuff,die,Der Pate,40,1,12,Schock,negative,-200,right,Beschreibung,200,right,200,right,0.04,hole,right,m,True,0.604511923157
homer,29,weiblich,Hufflepuff,die,Der Pate,40,1,13,Waffe,negative,-200,right,Juni,200,right,-200,left,0.04,hole,right,x,True,0.404584625736
homer,29,weiblich,Hufflepuff,die,Der Pate,40,1,14,Gesundheit,positive,-200,right,Park,200,right,-200,left,0.04,hole,left,x,True,0.491153169423
homer,29,weiblich,Hufflepuff,die,Der Pate,40,1,15,Attraktivität,positive,200,right,Kellner,-200,left,-200,left,0.04,hole,left,x,True,0.421472628601
homer,29,weiblich,Hufflepuff,die,Der Pate,40,1,16,Schrei,negative,-200,right,Hafen,200,right,200,right,1,hole,left,m,True,0.376926723868
homer,29,weiblich,Hufflepuff,die,Der Pate,40,1,17,Leidenschaft,positive,200,right,Apotheke,-200,left,200,right,1,hole,right,m,True,0.375223739073
homer,29,weiblich,Hufflepuff,die,Der Pate,40,1,18,Zufriedenheit,positive,200,right,Laden,-200,left,200,right,0.04,hole,right,m,True,0.37394590769
homer,29,weiblich,Hufflepuff,die,Der Pate,40,1,19,Leid,negative,200,right,Dusche,-200,left,-200,left,0.04,hole,right,x,True,0.514414129779
homer,29,weiblich,Hufflepuff,die,Der Pate,40,1,20,Vergnügen,positive,-200,right,Flur,200,right,-200,left,0.04,hole,left,x,True,0.484364541247
homer,29,weiblich,Hufflepuff,die,Der Pate,40,1,21,Rache,negative,200,right,Baum,-200,left,200,right,0.04,hole,left,m,True,0.416219452396
homer,29,weiblich,Hufflepuff,die,Der Pate,40,1,22,Sturz,negative,200,right,Bus,-200,left,-200,left,0.04,hole,right,x,True,0.400873225182
homer,29,weiblich,Hufflepuff,die,Der Pate,40,1,23,Frieden,positive,200,right,Bestellung,-200,left,-200,left,0.04,hole,left,x,True,0.443092636764
homer,29,weiblich,Hufflepuff,die,Der Pate,40,1,24,Harmonie,positive,200,right,Füller,-200,left,200,right,1,hole,left,m,True,0.374991011806
homer,29,weiblich,Hufflepuff,die,Der Pate,40,2,0,Terror,negative,200,right,Wind,-200,left,200,right,0.04,cross,None,m,True,0.369030562229
homer,29,weiblich,Hufflepuff,die,Der Pate,40,2,1,Wohlbefinden,positive,200,right,Fuß,-200,left,-200,left,1,cross,None,x,True,0.441805717535
homer,29,weiblich,Hufflepuff,die,Der Pate,40,2,2,Trennung,negative,200,right,Apfel,-200,left,200,right,0.04,cross,None,m,True,0.389986763708
homer,29,weiblich,Hufflepuff,die,Der Pate,40,2,3,Mut,positive,-200,right,Brille,200,right,200,right,0.04,cross,None,m,True,0.367918684147
homer,29,weiblich,Hufflepuff,die,Der Pate,40,2,4,Beliebtheit,positive,-200,right,Kleiderhaken,200,right,-200,left,0.04,cross,None,x,True,0.468672185205
homer,29,weiblich,Hufflepuff,die,Der Pate,40,2,5,Pessimismus,negative,-200,right,Monitor,200,right,200,right,0.04,cross,None,m,True,0.356293340214
homer,29,weiblich,Hufflepuff,die,Der Pate,40,2,6,Gestank,negative,-200,right,Anruf,200,right,-200,left,1,cross,None,x,True,0.505645534024
homer,29,weiblich,Hufflepuff,die,Der Pate,40,2,7,Optimismus,positive,200,right,Juli,-200,left,200,right,1,cross,None,m,True,0.373576861806
homer,29,weiblich,Hufflepuff,die,Der Pate,40,2,8,Schatz,positive,200,right,Dezember,-200,left,-200,left,0.04,cross,None,x,True,0.433666555211
homer,29,weiblich,Hufflepuff,die,Der Pate,40,2,9,Übelkeit,negative,200,right,Computer,-200,left,-200,left,0.04,cross,None,x,True,0.396256593987
homer,29,weiblich,Hufflepuff,die,Der Pate,40,2,10,Belohnung,positive,200,right,Pass,-200,left,-200,left,0.04,cross,None,x,True,0.402100085281
homer,29,weiblich,Hufflepuff,die,Der Pate,40,2,11,Droge,negative,200,right,April,-200,left,-200,left,0.04,cross,None,x,True,0.39294387307
homer,29,weiblich,Hufflepuff,die,Der Pate,40,2,12,Ehrlichkeit,positive,200,right,Koch,-200,left,200,right,1,cross,None,m,True,0.368263626471
homer,29,weiblich,Hufflepuff,die,Der Pate,40,2,13,Schleim,negative,-200,right,Dolmetscherin,200,right,-200,left,1,cross,None,x,True,0.433072287589
homer,29,weiblich,Hufflepuff,die,Der Pate,40,2,14,Koma,negative,-200,right,Kakao,200,right,-200,left,1,cross,None,x,True,0.527519213036
homer,29,weiblich,Hufflepuff,die,Der Pate,40,2,15,Armut,negative,200,right,Sessel,-200,left,-200,left,0.04,cross,None,x,True,0.393646008335
homer,29,weiblich,Hufflepuff,die,Der Pate,40,2,16,Dankbarkeit,positive,-200,right,Dose,200,right,200,right,1,cross,None,m,True,0.630833119154
homer,29,weiblich,Hufflepuff,die,Der Pate,40,2,17,Tapferkeit,positive,-200,right,Löffel,200,right,200,right,1,cross,None,m,True,0.458415946923
homer,29,weiblich,Hufflepuff,die,Der Pate,40,2,18,Sicherheit,positive,200,right,Passant,-200,left,200,right,0.04,cross,None,m,True,0.384121935815
homer,29,weiblich,Hufflepuff,die,Der Pate,40,2,19,Angst,negative,-200,right,Bahnhof,200,right,200,right,0.04,cross,None,m,True,0.370808226056
homer,29,weiblich,Hufflepuff,die,Der Pate,40,2,20,Höflichkeit,positive,-200,right,Kaffee,200,right,200,right,0.04,cross,None,m,True,0.365074184723
homer,29,weiblich,Hufflepuff,die,Der Pate,40,2,21,Verzweiflung,negative,-200,right,Dienstag,200,right,-200,left,0.04,cross,None,x,True,0.477697610855
homer,29,weiblich,Hufflepuff,die,Der Pate,40,2,22,Eleganz,positive,200,right,Supermarkt,-200,left,200,right,1,cross,None,m,True,1.48941501882
homer,29,weiblich,Hufflepuff,die,Der Pate,40,2,23,Depression,negative,200,right,Zeiger,-200,left,200,right,1,cross,None,m,True,0.419633324258
homer,29,weiblich,Hufflepuff,die,Der Pate,40,2,24,Freundschaft,positive,-200,right,Septmeber,200,right,-200,left,1,cross,None,x,True,0.392593397759
homer,29,weiblich,Hufflepuff,die,Der Pate,40,3,0,Schmerz,negative,200,right,Marktplatz,-200,left,200,right,0.04,hole,right,m,True,0.375751229934
homer,29,weiblich,Hufflepuff,die,Der Pate,40,3,1,Treue,positive,200,right,Stuhl,-200,left,200,right,1,hole,right,m,True,0.397822866216
homer,29,weiblich,Hufflepuff,die,Der Pate,40,3,2,Müll,negative,200,right,Apfelsine,-200,left,-200,left,0.04,hole,right,x,True,0.454119367525
homer,29,weiblich,Hufflepuff,die,Der Pate,40,3,3,Ekel,negative,-200,right,Fahrschein,200,right,200,right,1,hole,left,m,True,0.333960526623
homer,29,weiblich,Hufflepuff,die,Der Pate,40,3,4,Anerkennung,positive,200,right,Markt,-200,left,-200,left,1,hole,left,x,True,0.379087657668
homer,29,weiblich,Hufflepuff,die,Der Pate,40,3,5,Dummheit,negative,200,right,Rock,-200,left,-200,left,0.04,hole,right,x,True,0.433515221812
homer,29,weiblich,Hufflepuff,die,Der Pate,40,3,6,Rücksichtnahme,positive,200,right,Bank,-200,left,200,right,1,hole,right,m,True,0.36141612567
homer,29,weiblich,Hufflepuff,die,Der Pate,40,3,7,Wohlstand,positive,-200,right,Bluse,200,right,-200,left,0.04,hole,right,x,True,0.449914455414
homer,29,weiblich,Hufflepuff,die,Der Pate,40,3,8,Anschlag,negative,200,right,Schinken,-200,left,-200,left,0.04,hole,left,x,True,0.435707766563
homer,29,weiblich,Hufflepuff,die,Der Pate,40,3,9,Einsamkeit,negative,-200,right,Ausweis,200,right,-200,left,0.04,hole,left,x,True,0.433607285842
homer,29,weiblich,Hufflepuff,die,Der Pate,40,3,10,Sucht,negative,-200,right,Anzug,200,right,-200,left,1,hole,left,x,True,0.40058992058
homer,29,weiblich,Hufflepuff,die,Der Pate,40,3,11,Freiheit,positive,200,right,Brücke,-200,left,-200,left,1,hole,right,x,True,0.378839520738
homer,29,weiblich,Hufflepuff,die,Der Pate,40,3,12,Gefängnis,negative,200,right,Zucker,-200,left,200,right,0.04,hole,left,m,True,0.450390974991
homer,29,weiblich,Hufflepuff,die,Der Pate,40,3,13,Bombe,negative,-200,right,Bankkarte,200,right,200,right,1,hole,right,m,True,0.38462611381
homer,29,weiblich,Hufflepuff,die,Der Pate,40,3,14,Neid,negative,-200,right,Schrank,200,right,-200,left,1,hole,right,x,True,0.418176107109
homer,29,weiblich,Hufflepuff,die,Der Pate,40,3,15,Herzlichkeit,positive,200,right,Cola,-200,left,-200,left,0.04,hole,left,x,True,0.456043621525
homer,29,weiblich,Hufflepuff,die,Der Pate,40,3,16,Frohsinn,positive,-200,right,Keller,200,right,200,right,0.04,hole,left,m,True,0.447593891062
homer,29,weiblich,Hufflepuff,die,Der Pate,40,3,17,Schönheit,positive,-200,right,Projektor,200,right,-200,left,1,hole,left,x,True,0.360343758017
homer,29,weiblich,Hufflepuff,die,Der Pate,40,3,18,Bewunderung,positive,-200,right,Drucker,200,right,200,right,1,hole,right,m,True,0.396305983886
homer,29,weiblich,Hufflepuff,die,Der Pate,40,3,19,Schrott,negative,-200,right,Flughafen,200,right,200,right,0.04,hole,right,m,True,0.416424125433
homer,29,weiblich,Hufflepuff,die,Der Pate,40,3,20,Feind,negative,-200,right,Tee,200,right,-200,left,1,hole,left,x,True,0.379295889288
homer,29,weiblich,Hufflepuff,die,Der Pate,40,3,21,Horror,negative,-200,right,Zug,200,right,200,right,0.04,hole,right,m,True,0.351449907757
homer,29,weiblich,Hufflepuff,die,Der Pate,40,3,22,Heimweh,negative,-200,right,Eile,200,right,-200,left,0.04,hole,right,x,True,0.391719382256
homer,29,weiblich,Hufflepuff,die,Der Pate,40,3,23,Wut,negative,-200,right,Garten,200,right,200,right,0.04,hole,right,m,True,0.371371278539
homer,29,weiblich,Hufflepuff,die,Der Pate,40,3,24,Panik,negative,-200,right,Tag,200,right,-200,left,0.04,hole,left,x,True,0.400779579766
