subject,age,sex,house,nutella,movie,temperature,block,trial,cue_cond,cue_valence,cue_cond_pos,cue_cond_side,cue_neutral,cue_neutral_pos,cue_neutral_side,target_pos,target_side,duration,fixation,fixation_direction,response,correct,rt
JAAAAAN,23,männlich,Ravenclaw,die,Pulp Fiction,39,0,0,Vergnügen,positive,-200,right,Markt,200,right,200,right,1,cross,None,m,True,0.330893968232
JAAAAAN,23,männlich,Ravenclaw,die,Pulp Fiction,39,0,1,Kostbarkeit,positive,-200,right,Park,200,right,-200,left,1,cross,None,x,True,0.445348795503
JAAAAAN,23,männlich,Ravenclaw,die,Pulp Fiction,39,0,2,Hässlichkeit,negative,200,right,Bedienung,-200,left,-200,left,1,cross,None,x,True,0.484543137252
JAAAAAN,23,männlich,Ravenclaw,die,Pulp Fiction,39,0,3,Schrott,negative,200,right,Pullover,-200,left,200,right,1,cross,None,m,True,0.373333070427
JAAAAAN,23,männlich,Ravenclaw,die,Pulp Fiction,39,0,4,Herzlichkeit,positive,200,right,Fuß,-200,left,-200,left,0.04,cross,None,x,True,0.550575498492
JAAAAAN,23,männlich,Ravenclaw,die,Pulp Fiction,39,0,5,Unterstützung,positive,200,right,Tee,-200,left,200,right,0.04,cross,None,m,True,0.493088092655
JAAAAAN,23,männlich,Ravenclaw,die,Pulp Fiction,39,0,6,Rücksichtnahme,positive,200,right,Füller,-200,left,-200,left,1,cross,None,x,True,0.392334591597
JAAAAAN,23,männlich,Ravenclaw,die,Pulp Fiction,39,0,7,Regen,negative,200,right,Bildschirm,-200,left,200,right,0.04,cross,None,m,True,0.442068474367
JAAAAAN,23,männlich,Ravenclaw,die,Pulp Fiction,39,0,8,Bereicherung,positive,200,right,Septmeber,-200,left,-200,left,1,cross,None,x,True,0.317692474462
JAAAAAN,23,männlich,Ravenclaw,die,Pulp Fiction,39,0,9,Schatz,positive,200,right,Brille,-200,left,200,right,0.04,cross,None,m,True,0.393024083227
JAAAAAN,23,männlich,Ravenclaw,die,Pulp Fiction,39,0,10,Neid,negative,-200,right,Juli,200,right,200,right,1,cross,None,m,True,0.370022719726
JAAAAAN,23,männlich,Ravenclaw,die,Pulp Fiction,39,0,11,Gesundheit,positive,200,right,Teppich,-200,left,200,right,1,cross,None,m,True,0.638778671622
JAAAAAN,23,männlich,Ravenclaw,die,Pulp Fiction,39,0,12,Schrei,negative,-200,right,Bus,200,right,-200,left,0.04,cross,None,x,True,0.510971412994
JAAAAAN,23,männlich,Ravenclaw,die,Pulp Fiction,39,0,13,Mord,negative,200,right,Sessel,-200,left,200,right,1,cross,None,m,True,0.33342552837
JAAAAAN,23,männlich,Ravenclaw,die,Pulp Fiction,39,0,14,Entspannung,positive,-200,right,Apotheke,200,right,-200,left,1,cross,None,x,True,0.414092893712
JAAAAAN,23,männlich,Ravenclaw,die,Pulp Fiction,39,0,15,Anschlag,negative,200,right,Bahnhof,-200,left,200,right,0.04,cross,None,m,True,0.437042891048
JAAAAAN,23,männlich,Ravenclaw,die,Pulp Fiction,39,0,16,Harmonie,positive,-200,right,Bluse,200,right,200,right,1,cross,None,miss,False,-999
JAAAAAN,23,männlich,Ravenclaw,die,Pulp Fiction,39,0,17,Verzweiflung,negative,-200,right,Bankkarte,200,right,200,right,1,cross,None,m,True,0.329310310073
JAAAAAN,23,männlich,Ravenclaw,die,Pulp Fiction,39,0,18,Wunde,negative,-200,right,Computer,200,right,-200,left,0.04,cross,None,x,True,0.383849299513
JAAAAAN,23,männlich,Ravenclaw,die,Pulp Fiction,39,0,19,Eleganz,positive,-200,right,Juni,200,right,-200,left,0.04,cross,None,x,True,0.468403896317
JAAAAAN,23,männlich,Ravenclaw,die,Pulp Fiction,39,0,20,Sucht,negative,-200,right,Balkon,200,right,-200,left,1,cross,None,x,True,0.43067783583
JAAAAAN,23,männlich,Ravenclaw,die,Pulp Fiction,39,0,21,Dummheit,negative,-200,right,Schinken,200,right,200,right,0.04,cross,None,m,True,0.467639725655
JAAAAAN,23,männlich,Ravenclaw,die,Pulp Fiction,39,0,22,Müll,negative,-200,right,Garten,200,right,200,right,1,cross,None,m,True,0.353273405693
JAAAAAN,23,männlich,Ravenclaw,die,Pulp Fiction,39,0,23,Wohlbefinden,positive,-200,right,Locher,200,right,200,right,0.04,cross,None,m,True,0.488206334412
JAAAAAN,23,männlich,Ravenclaw,die,Pulp Fiction,39,0,24,Waffe,negative,-200,right,Bibliothek,200,right,200,right,0.04,cross,None,m,True,0.44841021765
JAAAAAN,23,männlich,Ravenclaw,die,Pulp Fiction,39,1,0,Angst,negative,-200,right,Februar,200,right,200,right,1,hole,right,m,True,0.416616156697
JAAAAAN,23,männlich,Ravenclaw,die,Pulp Fiction,39,1,1,Freundschaft,positive,-200,right,Dose,200,right,200,right,0.04,hole,left,m,True,0.400400260463
JAAAAAN,23,männlich,Ravenclaw,die,Pulp Fiction,39,1,2,Trennung,negative,-200,right,Kugelschrieber,200,right,200,right,0.04,hole,left,m,True,0.374979157932
JAAAAAN,23,männlich,Ravenclaw,die,Pulp Fiction,39,1,3,Bewunderung,positive,200,right,April,-200,left,-200,left,1,hole,right,x,True,0.28665902745
JAAAAAN,23,männlich,Ravenclaw,die,Pulp Fiction,39,1,4,Mut,positive,-200,right,Apfel,200,right,-200,left,1,hole,right,x,True,0.358278049156
JAAAAAN,23,männlich,Ravenclaw,die,Pulp Fiction,39,1,5,Pessimismus,negative,-200,right,Fernseher,200,right,200,right,0.04,hole,right,m,True,0.401914771646
JAAAAAN,23,männlich,Ravenclaw,die,Pulp Fiction,39,1,6,Solidarität,positive,-200,right,Dezember,200,right,-200,left,0.04,hole,right,x,True,0.450902660377
JAAAAAN,23,männlich,Ravenclaw,die,Pulp Fiction,39,1,7,Spaß,positive,200,right,Kleiderhaken,-200,left,200,right,1,hole,left,m,True,0.359208961017
JAAAAAN,23,männlich,Ravenclaw,die,Pulp Fiction,39,1,8,Freiheit,positive,200,right,Dolmetscherin,-200,left,200,right,1,hole,left,m,True,0.371653001755
JAAAAAN,23,männlich,Ravenclaw,die,Pulp Fiction,39,1,9,Einsamkeit,negative,200,right,Schlüssel,-200,left,-200,left,0.04,hole,left,x,True,0.357636762783
JAAAAAN,23,männlich,Ravenclaw,die,Pulp Fiction,39,1,10,Schock,negative,200,right,Hut,-200,left,-200,left,0.04,hole,right,x,True,0.527486022562
JAAAAAN,23,männlich,Ravenclaw,die,Pulp Fiction,39,1,11,Treue,positive,200,right,Pass,-200,left,200,right,1,hole,right,m,True,0.296857972629
JAAAAAN,23,männlich,Ravenclaw,die,Pulp Fiction,39,1,12,Trauer,negative,-200,right,März,200,right,200,right,0.04,hole,right,m,True,0.418499713764
JAAAAAN,23,männlich,Ravenclaw,die,Pulp Fiction,39,1,13,Horror,negative,200,right,Fahrschein,-200,left,-200,left,1,hole,left,x,True,0.267882727087
JAAAAAN,23,männlich,Ravenclaw,die,Pulp Fiction,39,1,14,Tod,negative,-200,right,RadiergummI,200,right,-200,left,0.04,hole,left,x,True,0.462533140555
JAAAAAN,23,männlich,Ravenclaw,die,Pulp Fiction,39,1,15,Depression,negative,-200,right,Cola,200,right,200,right,0.04,hole,right,m,True,0.405393050052
JAAAAAN,23,männlich,Ravenclaw,die,Pulp Fiction,39,1,16,Totschlag,negative,-200,right,Hafen,200,right,200,right,1,hole,right,m,True,0.311767587438
JAAAAAN,23,männlich,Ravenclaw,die,Pulp Fiction,39,1,17,Dankbarkeit,positive,-200,right,Bestellung,200,right,200,right,1,hole,right,m,True,0.36395558808
JAAAAAN,23,männlich,Ravenclaw,die,Pulp Fiction,39,1,18,Wohlstand,positive,200,right,Einwohner,-200,left,200,right,1,hole,right,m,True,0.383513049223
JAAAAAN,23,männlich,Ravenclaw,die,Pulp Fiction,39,1,19,Panik,negative,200,right,Beschreibung,-200,left,200,right,0.04,hole,left,m,True,0.877127842046
JAAAAAN,23,männlich,Ravenclaw,die,Pulp Fiction,39,1,20,Liebe,positive,200,right,Monitor,-200,left,200,right,1,hole,right,m,True,0.301666633226
JAAAAAN,23,männlich,Ravenclaw,die,Pulp Fiction,39,1,21,Lachen,positive,200,right,Gast,-200,left,200,right,0.04,hole,left,m,True,0.367779204622
JAAAAAN,23,männlich,Ravenclaw,die,Pulp Fiction,39,1,22,Sicherheit,positive,200,right,Berg,-200,left,-200,left,1,hole,right,x,True,0.409498785622
JAAAAAN,23,männlich,Ravenclaw,die,Pulp Fiction,39,1,23,Frieden,positive,-200,right,Dusche,200,right,200,right,0.04,hole,left,m,True,0.409631942399
JAAAAAN,23,männlich,Ravenclaw,die,Pulp Fiction,39,1,24,Glück,positive,-200,right,Dienstag,200,right,200,right,1,hole,right,m,True,0.331125511788
JAAAAAN,23,männlich,Ravenclaw,die,Pulp Fiction,39,2,0,Qual,negative,-200,right,August,200,right,-200,left,0.04,cross,None,x,True,0.724601616152
JAAAAAN,23,männlich,Ravenclaw,die,Pulp Fiction,39,2,1,Zufriedenheit,positive,-200,right,Strumpf,200,right,-200,left,1,cross,None,x,True,0.420462295413
JAAAAAN,23,männlich,Ravenclaw,die,Pulp Fiction,39,2,2,Belohnung,positive,200,right,Keller,-200,left,-200,left,0.04,cross,None,x,True,0.499338166788
JAAAAAN,23,männlich,Ravenclaw,die,Pulp Fiction,39,2,3,Ehrlichkeit,positive,200,right,Apfelsine,-200,left,-200,left,1,cross,None,x,True,0.393736491911
JAAAAAN,23,männlich,Ravenclaw,die,Pulp Fiction,39,2,4,Schönheit,positive,-200,right,Marktplatz,200,right,-200,left,0.04,cross,None,x,True,0.39910464827
JAAAAAN,23,männlich,Ravenclaw,die,Pulp Fiction,39,2,5,Kraft,positive,200,right,Herr,-200,left,-200,left,1,cross,None,x,True,0.41573977191
JAAAAAN,23,männlich,Ravenclaw,die,Pulp Fiction,39,2,6,Geschenk,positive,200,right,Wind,-200,left,200,right,1,cross,None,m,True,0.290908982977
JAAAAAN,23,männlich,Ravenclaw,die,Pulp Fiction,39,2,7,Folter,negative,200,right,Zucker,-200,left,-200,left,1,cross,None,x,True,0.279573661275
JAAAAAN,23,männlich,Ravenclaw,die,Pulp Fiction,39,2,8,Geisel,negative,200,right,Name,-200,left,-200,left,1,cross,None,x,True,0.33100302238
JAAAAAN,23,männlich,Ravenclaw,die,Pulp Fiction,39,2,9,Sympathie,positive,200,right,Oktober,-200,left,-200,left,0.04,cross,None,x,True,0.628247821704
JAAAAAN,23,männlich,Ravenclaw,die,Pulp Fiction,39,2,10,Unglück,negative,200,right,Passant,-200,left,200,right,1,cross,None,m,True,0.359760159627
JAAAAAN,23,männlich,Ravenclaw,die,Pulp Fiction,39,2,11,Genuss,positive,200,right,Tag,-200,left,200,right,0.04,cross,None,m,True,0.36526423879
JAAAAAN,23,männlich,Ravenclaw,die,Pulp Fiction,39,2,12,Erfolg,positive,-200,right,Kunde,200,right,-200,left,1,cross,None,x,True,0.307944365777
JAAAAAN,23,männlich,Ravenclaw,die,Pulp Fiction,39,2,13,Stärke,positive,-200,right,Diskette,200,right,-200,left,0.04,cross,None,x,True,0.439959301613
JAAAAAN,23,männlich,Ravenclaw,die,Pulp Fiction,39,2,14,Sturz,negative,200,right,Kakao,-200,left,200,right,0.04,cross,None,m,True,0.390550211072
JAAAAAN,23,männlich,Ravenclaw,die,Pulp Fiction,39,2,15,Hilfsbereitschaft,positive,200,right,November,-200,left,200,right,0.04,cross,None,m,True,0.40694509726
JAAAAAN,23,männlich,Ravenclaw,die,Pulp Fiction,39,2,16,Tapferkeit,positive,200,right,Wagen,-200,left,200,right,0.04,cross,None,m,True,0.402433174662
JAAAAAN,23,männlich,Ravenclaw,die,Pulp Fiction,39,2,17,Verletzung,negative,-200,right,Januar,200,right,-200,left,1,cross,None,x,True,0.370524922386
JAAAAAN,23,männlich,Ravenclaw,die,Pulp Fiction,39,2,18,Gerechtigkeit,positive,200,right,Eile,-200,left,-200,left,0.04,cross,None,x,True,0.371793665923
JAAAAAN,23,männlich,Ravenclaw,die,Pulp Fiction,39,2,19,Anerkennung,positive,-200,right,Flughafen,200,right,200,right,0.04,cross,None,m,True,0.352812691592
JAAAAAN,23,männlich,Ravenclaw,die,Pulp Fiction,39,2,20,Schmerz,negative,200,right,Baum,-200,left,-200,left,1,cross,None,x,True,0.371260643937
JAAAAAN,23,männlich,Ravenclaw,die,Pulp Fiction,39,2,21,Leid,negative,200,right,Platz,-200,left,-200,left,0.04,cross,None,x,True,0.384130232967
JAAAAAN,23,männlich,Ravenclaw,die,Pulp Fiction,39,2,22,Frohsinn,positive,-200,right,Zug,200,right,-200,left,0.04,cross,None,x,True,0.42550091818
JAAAAAN,23,männlich,Ravenclaw,die,Pulp Fiction,39,2,23,Lebensfreude,positive,-200,right,Fußboden,200,right,-200,left,1,cross,None,x,True,0.325982575305
JAAAAAN,23,männlich,Ravenclaw,die,Pulp Fiction,39,2,24,Zuverlässigkeit,positive,200,right,Schrank,-200,left,-200,left,1,cross,None,x,True,0.357312365435
JAAAAAN,23,männlich,Ravenclaw,die,Pulp Fiction,39,3,0,Übelkeit,negative,-200,right,Eintrittskarte,200,right,200,right,1,hole,right,m,True,0.359351996332
JAAAAAN,23,männlich,Ravenclaw,die,Pulp Fiction,39,3,1,Verehrung,positive,200,right,Anruf,-200,left,200,right,1,hole,left,m,True,0.452030345798
JAAAAAN,23,männlich,Ravenclaw,die,Pulp Fiction,39,3,2,Krieg,negative,200,right,Löffel,-200,left,200,right,0.04,hole,left,m,True,0.488635834306
JAAAAAN,23,männlich,Ravenclaw,die,Pulp Fiction,39,3,3,Beliebtheit,positive,200,right,Bank,-200,left,-200,left,0.04,hole,right,x,True,0.513163166121
JAAAAAN,23,männlich,Ravenclaw,die,Pulp Fiction,39,3,4,Krankheit,negative,200,right,Laden,-200,left,-200,left,1,hole,right,x,True,0.518770373426
JAAAAAN,23,männlich,Ravenclaw,die,Pulp Fiction,39,3,5,Höflichkeit,positive,200,right,Flur,-200,left,-200,left,1,hole,left,x,True,0.528999348171
JAAAAAN,23,männlich,Ravenclaw,die,Pulp Fiction,39,3,6,Attraktivität,positive,200,right,Stuhl,-200,left,-200,left,1,hole,right,x,True,0.658959638327
JAAAAAN,23,männlich,Ravenclaw,die,Pulp Fiction,39,3,7,Armut,negative,-200,right,Ausweis,200,right,200,right,0.04,hole,left,m,True,0.413960922509
JAAAAAN,23,männlich,Ravenclaw,die,Pulp Fiction,39,3,8,Optimismus,positive,200,right,Anzug,-200,left,-200,left,0.04,hole,left,x,True,0.393398265354
JAAAAAN,23,männlich,Ravenclaw,die,Pulp Fiction,39,3,9,Leidenschaft,positive,-200,right,Finger,200,right,200,right,1,hole,right,m,True,0.409108006395
JAAAAAN,23,männlich,Ravenclaw,die,Pulp Fiction,39,3,10,Hass,negative,200,right,Koch,-200,left,-200,left,0.04,hole,right,x,True,0.507555563934
JAAAAAN,23,männlich,Ravenclaw,die,Pulp Fiction,39,3,11,Reichtum,positive,-200,right,Kellner,200,right,200,right,1,hole,right,m,True,0.338673568331
JAAAAAN,23,männlich,Ravenclaw,die,Pulp Fiction,39,3,12,Koma,negative,-200,right,Geburtstag,200,right,-200,left,0.04,hole,left,x,True,0.520198746584
JAAAAAN,23,männlich,Ravenclaw,die,Pulp Fiction,39,3,13,Ekel,negative,-200,right,Mai,200,right,-200,left,1,hole,left,x,True,0.408808502369
JAAAAAN,23,männlich,Ravenclaw,die,Pulp Fiction,39,3,14,Droge,negative,-200,right,Kaffee,200,right,-200,left,1,hole,left,x,True,0.289132899605
JAAAAAN,23,männlich,Ravenclaw,die,Pulp Fiction,39,3,15,Heimweh,negative,200,right,Zuschauer,-200,left,200,right,0.04,hole,right,m,True,0.461191694252
JAAAAAN,23,männlich,Ravenclaw,die,Pulp Fiction,39,3,16,Bombe,negative,-200,right,Zeiger,200,right,200,right,1,hole,left,m,True,0.332956911996
JAAAAAN,23,männlich,Ravenclaw,die,Pulp Fiction,39,3,17,Wut,negative,-200,right,Tisch,200,right,200,right,0.04,hole,left,m,True,0.440536579117
JAAAAAN,23,männlich,Ravenclaw,die,Pulp Fiction,39,3,18,Unfall,negative,200,right,Brücke,-200,left,-200,left,1,hole,right,x,True,0.43108836934
JAAAAAN,23,männlich,Ravenclaw,die,Pulp Fiction,39,3,19,Feind,negative,-200,right,Rock,200,right,-200,left,0.04,hole,left,x,True,0.485977438278
JAAAAAN,23,männlich,Ravenclaw,die,Pulp Fiction,39,3,20,Gestank,negative,-200,right,Supermarkt,200,right,200,right,0.04,hole,right,m,True,0.462546969764
JAAAAAN,23,männlich,Ravenclaw,die,Pulp Fiction,39,3,21,Gefängnis,negative,-200,right,Adresse,200,right,-200,left,1,hole,right,x,True,0.363536756486
JAAAAAN,23,männlich,Ravenclaw,die,Pulp Fiction,39,3,22,Schleim,negative,-200,right,Decke,200,right,-200,left,1,hole,left,x,True,0.50166544877
JAAAAAN,23,männlich,Ravenclaw,die,Pulp Fiction,39,3,23,Terror,negative,200,right,Projektor,-200,left,200,right,0.04,hole,right,m,True,0.454000039957
JAAAAAN,23,männlich,Ravenclaw,die,Pulp Fiction,39,3,24,Rache,negative,-200,right,Drucker,200,right,200,right,0.04,hole,right,m,True,0.59242191352
