subject,age,sex,house,nutella,movie,temperature,block,trial,cue_cond,cue_valence,cue_cond_pos,cue_cond_side,cue_neutral,cue_neutral_pos,cue_neutral_side,target_pos,target_side,duration,fixation,fixation_direction,response,correct,rt
Mr. M. Wallace,41,männlich,Slytherin,das,Der Pate,25,0,0,Krieg,negative,200,right,Passant,-200,left,-200,left,0.04,cross,None,x,True,0.439418773167
Mr. M. Wallace,41,männlich,Slytherin,das,Der Pate,25,0,1,Optimismus,positive,200,right,Oktober,-200,left,200,right,1,cross,None,m,True,0.330932690762
Mr. M. Wallace,41,männlich,Slytherin,das,Der Pate,25,0,2,Attraktivität,positive,200,right,Finger,-200,left,-200,left,1,cross,None,x,True,0.366364264861
Mr. M. Wallace,41,männlich,Slytherin,das,Der Pate,25,0,3,Hass,negative,-200,right,Diskette,200,right,200,right,0.04,cross,None,m,True,0.636667127721
Mr. M. Wallace,41,männlich,Slytherin,das,Der Pate,25,0,4,Übelkeit,negative,200,right,Wind,-200,left,-200,left,0.04,cross,None,x,True,0.572382796556
Mr. M. Wallace,41,männlich,Slytherin,das,Der Pate,25,0,5,Schleim,negative,-200,right,Cola,200,right,200,right,0.04,cross,None,m,True,0.459586305544
Mr. M. Wallace,41,männlich,Slytherin,das,Der Pate,25,0,6,Dummheit,negative,-200,right,Park,200,right,200,right,0.04,cross,None,m,True,0.545642768033
Mr. M. Wallace,41,männlich,Slytherin,das,Der Pate,25,0,7,Schatz,positive,200,right,Juli,-200,left,200,right,0.04,cross,None,m,True,0.542684474029
Mr. M. Wallace,41,männlich,Slytherin,das,Der Pate,25,0,8,Tapferkeit,positive,200,right,Herr,-200,left,200,right,0.04,cross,None,m,True,0.396701107733
Mr. M. Wallace,41,männlich,Slytherin,das,Der Pate,25,0,9,Armut,negative,-200,right,Eintrittskarte,200,right,-200,left,1,cross,None,x,True,0.336580200121
Mr. M. Wallace,41,männlich,Slytherin,das,Der Pate,25,0,10,Wut,negative,-200,right,Bedienung,200,right,-200,left,0.04,cross,None,x,True,0.454174684361
Mr. M. Wallace,41,männlich,Slytherin,das,Der Pate,25,0,11,Gesundheit,positive,-200,right,Projektor,200,right,-200,left,1,cross,None,x,True,0.42126044631
Mr. M. Wallace,41,männlich,Slytherin,das,Der Pate,25,0,12,Sympathie,positive,-200,right,Februar,200,right,-200,left,1,cross,None,x,True,0.428420095704
Mr. M. Wallace,41,männlich,Slytherin,das,Der Pate,25,0,13,Sicherheit,positive,200,right,Dusche,-200,left,200,right,1,cross,None,m,True,0.334468261339
Mr. M. Wallace,41,männlich,Slytherin,das,Der Pate,25,0,14,Feind,negative,200,right,Name,-200,left,200,right,0.04,cross,None,m,True,0.506263903342
Mr. M. Wallace,41,männlich,Slytherin,das,Der Pate,25,0,15,Beliebtheit,positive,200,right,Fahrschein,-200,left,-200,left,0.04,cross,None,x,True,0.47232352756
Mr. M. Wallace,41,männlich,Slytherin,das,Der Pate,25,0,16,Genuss,positive,200,right,Kugelschrieber,-200,left,-200,left,0.04,cross,None,x,True,0.555029733106
Mr. M. Wallace,41,männlich,Slytherin,das,Der Pate,25,0,17,Zufriedenheit,positive,-200,right,Monitor,200,right,-200,left,0.04,cross,None,x,True,0.726135092787
Mr. M. Wallace,41,männlich,Slytherin,das,Der Pate,25,0,18,Neid,negative,200,right,Geburtstag,-200,left,200,right,1,cross,None,m,True,0.337637157179
Mr. M. Wallace,41,männlich,Slytherin,das,Der Pate,25,0,19,Eleganz,positive,-200,right,Supermarkt,200,right,-200,left,1,cross,None,x,True,0.459985380992
Mr. M. Wallace,41,männlich,Slytherin,das,Der Pate,25,0,20,Glück,positive,-200,right,Dolmetscherin,200,right,200,right,1,cross,None,m,True,0.562497579493
Mr. M. Wallace,41,männlich,Slytherin,das,Der Pate,25,0,21,Frohsinn,positive,200,right,RadiergummI,-200,left,-200,left,0.04,cross,None,x,True,0.499081730843
Mr. M. Wallace,41,männlich,Slytherin,das,Der Pate,25,0,22,Herzlichkeit,positive,-200,right,Füller,200,right,-200,left,1,cross,None,x,True,0.304432108067
Mr. M. Wallace,41,männlich,Slytherin,das,Der Pate,25,0,23,Hässlichkeit,negative,200,right,Bestellung,-200,left,200,right,0.04,cross,None,m,True,0.480114980601
Mr. M. Wallace,41,männlich,Slytherin,das,Der Pate,25,0,24,Ehrlichkeit,positive,-200,right,Beschreibung,200,right,200,right,0.04,cross,None,m,True,0.449224173091
Mr. M. Wallace,41,männlich,Slytherin,das,Der Pate,25,1,0,Sturz,negative,200,right,Baum,-200,left,-200,left,1,hole,right,x,True,0.531338088214
Mr. M. Wallace,41,männlich,Slytherin,das,Der Pate,25,1,1,Freiheit,positive,-200,right,Adresse,200,right,-200,left,1,hole,left,x,True,0.42983661592
Mr. M. Wallace,41,männlich,Slytherin,das,Der Pate,25,1,2,Dankbarkeit,positive,-200,right,Hut,200,right,-200,left,0.04,hole,right,x,True,0.427523164079
Mr. M. Wallace,41,männlich,Slytherin,das,Der Pate,25,1,3,Waffe,negative,-200,right,Flur,200,right,-200,left,1,hole,right,x,True,0.310523737222
Mr. M. Wallace,41,männlich,Slytherin,das,Der Pate,25,1,4,Anerkennung,positive,200,right,Brücke,-200,left,200,right,1,hole,left,m,True,0.317778217606
Mr. M. Wallace,41,männlich,Slytherin,das,Der Pate,25,1,5,Droge,negative,200,right,Anruf,-200,left,-200,left,1,hole,right,x,True,0.321647272445
Mr. M. Wallace,41,männlich,Slytherin,das,Der Pate,25,1,6,Gerechtigkeit,positive,200,right,Gast,-200,left,-200,left,0.04,hole,left,x,True,0.426936009899
Mr. M. Wallace,41,männlich,Slytherin,das,Der Pate,25,1,7,Bewunderung,positive,200,right,Zuschauer,-200,left,-200,left,1,hole,right,x,True,0.401483691297
Mr. M. Wallace,41,männlich,Slytherin,das,Der Pate,25,1,8,Bereicherung,positive,200,right,Kleiderhaken,-200,left,-200,left,1,hole,right,x,True,0.302276310511
Mr. M. Wallace,41,männlich,Slytherin,das,Der Pate,25,1,9,Harmonie,positive,200,right,Fernseher,-200,left,-200,left,1,hole,left,x,True,0.323642254807
Mr. M. Wallace,41,männlich,Slytherin,das,Der Pate,25,1,10,Einsamkeit,negative,-200,right,Fußboden,200,right,-200,left,0.04,hole,right,x,True,0.419726178981
Mr. M. Wallace,41,männlich,Slytherin,das,Der Pate,25,1,11,Spaß,positive,-200,right,Dezember,200,right,200,right,1,hole,right,m,True,0.375273524784
Mr. M. Wallace,41,männlich,Slytherin,das,Der Pate,25,1,12,Totschlag,negative,200,right,Decke,-200,left,200,right,1,hole,right,m,True,0.39697216358
Mr. M. Wallace,41,männlich,Slytherin,das,Der Pate,25,1,13,Rücksichtnahme,positive,-200,right,Löffel,200,right,-200,left,1,hole,left,x,True,0.453353616409
Mr. M. Wallace,41,männlich,Slytherin,das,Der Pate,25,1,14,Frieden,positive,-200,right,Wagen,200,right,-200,left,1,hole,right,x,True,0.407695042901
Mr. M. Wallace,41,männlich,Slytherin,das,Der Pate,25,1,15,Ekel,negative,200,right,Garten,-200,left,200,right,0.04,hole,left,m,True,0.400732560083
Mr. M. Wallace,41,männlich,Slytherin,das,Der Pate,25,1,16,Kostbarkeit,positive,-200,right,Dose,200,right,200,right,0.04,hole,right,m,True,0.330480272882
Mr. M. Wallace,41,männlich,Slytherin,das,Der Pate,25,1,17,Wunde,negative,-200,right,Hafen,200,right,200,right,0.04,hole,left,m,True,0.344089930877
Mr. M. Wallace,41,männlich,Slytherin,das,Der Pate,25,1,18,Unfall,negative,-200,right,November,200,right,200,right,0.04,hole,left,m,True,0.357833138667
Mr. M. Wallace,41,männlich,Slytherin,das,Der Pate,25,1,19,Wohlbefinden,positive,200,right,Computer,-200,left,200,right,0.04,hole,right,m,True,0.341691921465
Mr. M. Wallace,41,männlich,Slytherin,das,Der Pate,25,1,20,Verletzung,negative,-200,right,Mai,200,right,-200,left,1,hole,right,x,True,0.365675169043
Mr. M. Wallace,41,männlich,Slytherin,das,Der Pate,25,1,21,Geschenk,positive,200,right,Flughafen,-200,left,200,right,1,hole,left,m,True,0.304699606262
Mr. M. Wallace,41,männlich,Slytherin,das,Der Pate,25,1,22,Reichtum,positive,-200,right,Bibliothek,200,right,-200,left,1,hole,right,x,True,0.364813402295
Mr. M. Wallace,41,männlich,Slytherin,das,Der Pate,25,1,23,Schönheit,positive,200,right,Sessel,-200,left,-200,left,0.04,hole,right,x,True,0.432267419994
Mr. M. Wallace,41,männlich,Slytherin,das,Der Pate,25,1,24,Zuverlässigkeit,positive,-200,right,August,200,right,-200,left,1,hole,left,x,True,0.409864670597
Mr. M. Wallace,41,männlich,Slytherin,das,Der Pate,25,2,0,Leidenschaft,positive,200,right,Pass,-200,left,-200,left,0.04,cross,None,x,True,0.421208289452
Mr. M. Wallace,41,männlich,Slytherin,das,Der Pate,25,2,1,Schrott,negative,200,right,Koch,-200,left,200,right,0.04,cross,None,m,True,0.384485844523
Mr. M. Wallace,41,männlich,Slytherin,das,Der Pate,25,2,2,Solidarität,positive,200,right,Eile,-200,left,-200,left,1,cross,None,x,True,0.295820375904
Mr. M. Wallace,41,männlich,Slytherin,das,Der Pate,25,2,3,Krankheit,negative,200,right,Tee,-200,left,-200,left,1,cross,None,x,True,0.325800027698
Mr. M. Wallace,41,männlich,Slytherin,das,Der Pate,25,2,4,Wohlstand,positive,200,right,Bildschirm,-200,left,-200,left,0.04,cross,None,x,True,0.564354267903
Mr. M. Wallace,41,männlich,Slytherin,das,Der Pate,25,2,5,Panik,negative,200,right,Zug,-200,left,-200,left,1,cross,None,x,True,0.520473358221
Mr. M. Wallace,41,männlich,Slytherin,das,Der Pate,25,2,6,Trennung,negative,200,right,Laden,-200,left,-200,left,0.04,cross,None,x,True,0.682294090278
Mr. M. Wallace,41,männlich,Slytherin,das,Der Pate,25,2,7,Heimweh,negative,200,right,Kellner,-200,left,200,right,0.04,cross,None,m,True,0.493323192
Mr. M. Wallace,41,männlich,Slytherin,das,Der Pate,25,2,8,Bombe,negative,-200,right,Anzug,200,right,200,right,0.04,cross,None,m,True,0.595209909603
Mr. M. Wallace,41,männlich,Slytherin,das,Der Pate,25,2,9,Terror,negative,-200,right,Schinken,200,right,200,right,0.04,cross,None,m,True,0.588961415924
Mr. M. Wallace,41,männlich,Slytherin,das,Der Pate,25,2,10,Lachen,positive,-200,right,Bahnhof,200,right,-200,left,0.04,cross,None,x,True,0.552644764073
Mr. M. Wallace,41,männlich,Slytherin,das,Der Pate,25,2,11,Vergnügen,positive,200,right,Markt,-200,left,-200,left,0.04,cross,None,x,True,0.482115889899
Mr. M. Wallace,41,männlich,Slytherin,das,Der Pate,25,2,12,Tod,negative,200,right,Balkon,-200,left,200,right,0.04,cross,None,m,True,0.53288183827
Mr. M. Wallace,41,männlich,Slytherin,das,Der Pate,25,2,13,Leid,negative,-200,right,Rock,200,right,200,right,0.04,cross,None,m,True,0.52649505157
Mr. M. Wallace,41,männlich,Slytherin,das,Der Pate,25,2,14,Verehrung,positive,-200,right,Berg,200,right,-200,left,1,cross,None,x,True,0.402202026919
Mr. M. Wallace,41,männlich,Slytherin,das,Der Pate,25,2,15,Anschlag,negative,-200,right,Drucker,200,right,200,right,1,cross,None,m,True,0.349978069775
Mr. M. Wallace,41,männlich,Slytherin,das,Der Pate,25,2,16,Gefängnis,negative,200,right,Kaffee,-200,left,200,right,0.04,cross,None,m,True,0.524683406577
Mr. M. Wallace,41,männlich,Slytherin,das,Der Pate,25,2,17,Erfolg,positive,200,right,Januar,-200,left,200,right,0.04,cross,None,m,True,0.519085288048
Mr. M. Wallace,41,männlich,Slytherin,das,Der Pate,25,2,18,Geisel,negative,-200,right,April,200,right,-200,left,1,cross,None,x,True,0.381559160538
Mr. M. Wallace,41,männlich,Slytherin,das,Der Pate,25,2,19,Rache,negative,200,right,Strumpf,-200,left,200,right,1,cross,None,m,True,0.317331331782
Mr. M. Wallace,41,männlich,Slytherin,das,Der Pate,25,2,20,Hilfsbereitschaft,positive,200,right,März,-200,left,-200,left,0.04,cross,None,x,True,0.404894403182
Mr. M. Wallace,41,männlich,Slytherin,das,Der Pate,25,2,21,Mord,negative,200,right,Ausweis,-200,left,-200,left,0.04,cross,None,x,True,0.446908745915
Mr. M. Wallace,41,männlich,Slytherin,das,Der Pate,25,2,22,Schmerz,negative,200,right,Pullover,-200,left,200,right,0.04,cross,None,m,True,0.450501215644
Mr. M. Wallace,41,männlich,Slytherin,das,Der Pate,25,2,23,Stärke,positive,-200,right,Schlüssel,200,right,200,right,0.04,cross,None,m,True,0.467618783936
Mr. M. Wallace,41,männlich,Slytherin,das,Der Pate,25,2,24,Liebe,positive,200,right,Bus,-200,left,-200,left,1,cross,None,x,True,0.340049390681
Mr. M. Wallace,41,männlich,Slytherin,das,Der Pate,25,3,0,Gestank,negative,-200,right,Bankkarte,200,right,-200,left,1,hole,left,x,True,0.368183021434
Mr. M. Wallace,41,männlich,Slytherin,das,Der Pate,25,3,1,Koma,negative,200,right,Marktplatz,-200,left,-200,left,0.04,hole,right,x,True,0.497969062068
Mr. M. Wallace,41,männlich,Slytherin,das,Der Pate,25,3,2,Freundschaft,positive,200,right,Kunde,-200,left,-200,left,0.04,hole,right,x,True,0.392033901066
Mr. M. Wallace,41,männlich,Slytherin,das,Der Pate,25,3,3,Müll,negative,-200,right,Fuß,200,right,200,right,1,hole,right,m,True,0.331378785893
Mr. M. Wallace,41,männlich,Slytherin,das,Der Pate,25,3,4,Horror,negative,-200,right,Einwohner,200,right,200,right,1,hole,right,m,True,0.341322876513
Mr. M. Wallace,41,männlich,Slytherin,das,Der Pate,25,3,5,Mut,positive,200,right,Septmeber,-200,left,200,right,0.04,hole,left,m,True,0.329837406985
Mr. M. Wallace,41,männlich,Slytherin,das,Der Pate,25,3,6,Angst,negative,200,right,Bluse,-200,left,200,right,0.04,hole,left,m,True,0.399154829793
Mr. M. Wallace,41,männlich,Slytherin,das,Der Pate,25,3,7,Verzweiflung,negative,200,right,Schrank,-200,left,200,right,0.04,hole,left,m,True,0.473167908378
Mr. M. Wallace,41,männlich,Slytherin,das,Der Pate,25,3,8,Kraft,positive,-200,right,Apotheke,200,right,-200,left,1,hole,right,x,True,0.325854159892
Mr. M. Wallace,41,männlich,Slytherin,das,Der Pate,25,3,9,Belohnung,positive,-200,right,Bank,200,right,200,right,0.04,hole,left,m,True,0.352649900131
Mr. M. Wallace,41,männlich,Slytherin,das,Der Pate,25,3,10,Schock,negative,200,right,Stuhl,-200,left,200,right,1,hole,right,x,False,0.270750538446
Mr. M. Wallace,41,männlich,Slytherin,das,Der Pate,25,3,11,Lebensfreude,positive,200,right,Brille,-200,left,-200,left,1,hole,left,x,True,0.338400537148
Mr. M. Wallace,41,männlich,Slytherin,das,Der Pate,25,3,12,Entspannung,positive,-200,right,Apfelsine,200,right,200,right,0.04,hole,right,m,True,0.481001244858
Mr. M. Wallace,41,männlich,Slytherin,das,Der Pate,25,3,13,Höflichkeit,positive,200,right,Kakao,-200,left,200,right,0.04,hole,right,m,True,0.482784044929
Mr. M. Wallace,41,männlich,Slytherin,das,Der Pate,25,3,14,Unterstützung,positive,-200,right,Tisch,200,right,-200,left,0.04,hole,left,x,True,0.506927711889
Mr. M. Wallace,41,männlich,Slytherin,das,Der Pate,25,3,15,Regen,negative,200,right,Dienstag,-200,left,200,right,1,hole,left,m,True,0.3150040498
Mr. M. Wallace,41,männlich,Slytherin,das,Der Pate,25,3,16,Qual,negative,200,right,Tag,-200,left,200,right,1,hole,left,m,True,0.356674634852
Mr. M. Wallace,41,männlich,Slytherin,das,Der Pate,25,3,17,Sucht,negative,-200,right,Locher,200,right,-200,left,1,hole,left,x,True,0.363125432283
Mr. M. Wallace,41,männlich,Slytherin,das,Der Pate,25,3,18,Treue,positive,-200,right,Apfel,200,right,-200,left,0.04,hole,left,x,True,0.598180058412
Mr. M. Wallace,41,männlich,Slytherin,das,Der Pate,25,3,19,Unglück,negative,-200,right,Juni,200,right,200,right,0.04,hole,left,m,True,0.345538850874
Mr. M. Wallace,41,männlich,Slytherin,das,Der Pate,25,3,20,Schrei,negative,200,right,Zeiger,-200,left,-200,left,1,hole,right,x,True,0.373752691783
Mr. M. Wallace,41,männlich,Slytherin,das,Der Pate,25,3,21,Depression,negative,200,right,Keller,-200,left,200,right,0.04,hole,right,m,True,0.427235908806
Mr. M. Wallace,41,männlich,Slytherin,das,Der Pate,25,3,22,Trauer,negative,200,right,Teppich,-200,left,-200,left,0.04,hole,left,x,True,0.488048284315
Mr. M. Wallace,41,männlich,Slytherin,das,Der Pate,25,3,23,Folter,negative,-200,right,Platz,200,right,-200,left,1,hole,right,x,True,0.416667917743
Mr. M. Wallace,41,männlich,Slytherin,das,Der Pate,25,3,24,Pessimismus,negative,200,right,Zucker,-200,left,-200,left,0.04,hole,right,x,True,0.342040816322
