subject,age,sex,house,nutella,movie,temperature,block,trial,cue_cond,cue_valence,cue_cond_pos,cue_cond_side,cue_neutral,cue_neutral_pos,cue_neutral_side,target_pos,target_side,duration,fixation,fixation_direction,response,correct,rt
PE,25,männlich,Hufflepuff,die,Der Pate,38,0,0,Unglück,negative,200,right,Berg,-200,left,200,right,0.04,cross,None,m,True,0.572433948517
PE,25,männlich,Hufflepuff,die,Der Pate,38,0,1,Einsamkeit,negative,-200,right,Wagen,200,right,-200,left,0.04,cross,None,x,True,0.422660827637
PE,25,männlich,Hufflepuff,die,Der Pate,38,0,2,Herzlichkeit,positive,-200,right,Supermarkt,200,right,200,right,0.04,cross,None,m,True,0.418362140656
PE,25,männlich,Hufflepuff,die,Der Pate,38,0,3,Trennung,negative,-200,right,Kakao,200,right,-200,left,1,cross,None,x,True,0.423862934113
PE,25,männlich,Hufflepuff,die,Der Pate,38,0,4,Reichtum,positive,-200,right,Bildschirm,200,right,200,right,0.04,cross,None,m,True,0.456899881363
PE,25,männlich,Hufflepuff,die,Der Pate,38,0,5,Kraft,positive,-200,right,Laden,200,right,200,right,0.04,cross,None,m,True,0.419359922409
PE,25,männlich,Hufflepuff,die,Der Pate,38,0,6,Stärke,positive,200,right,Balkon,-200,left,200,right,0.04,cross,None,m,True,0.499738931656
PE,25,männlich,Hufflepuff,die,Der Pate,38,0,7,Qual,negative,-200,right,Fußboden,200,right,-200,left,1,cross,None,x,True,0.41863489151
PE,25,männlich,Hufflepuff,die,Der Pate,38,0,8,Schrott,negative,-200,right,Bedienung,200,right,-200,left,1,cross,None,x,True,0.55158996582
PE,25,männlich,Hufflepuff,die,Der Pate,38,0,9,Pessimismus,negative,200,right,Koch,-200,left,-200,left,1,cross,None,x,True,0.369997024536
PE,25,männlich,Hufflepuff,die,Der Pate,38,0,10,Wohlbefinden,positive,200,right,Kunde,-200,left,-200,left,1,cross,None,x,True,0.416996955872
PE,25,männlich,Hufflepuff,die,Der Pate,38,0,11,Totschlag,negative,-200,right,Gast,200,right,-200,left,0.04,cross,None,x,True,0.435153007507
PE,25,männlich,Hufflepuff,die,Der Pate,38,0,12,Dummheit,negative,-200,right,Rock,200,right,200,right,0.04,cross,None,m,True,0.722961902618
PE,25,männlich,Hufflepuff,die,Der Pate,38,0,13,Frohsinn,positive,-200,right,Bahnhof,200,right,200,right,0.04,cross,None,m,True,1.46363806725
PE,25,männlich,Hufflepuff,die,Der Pate,38,0,14,Angst,negative,-200,right,November,200,right,-200,left,0.04,cross,None,x,True,0.368097066879
PE,25,männlich,Hufflepuff,die,Der Pate,38,0,15,Wunde,negative,-200,right,Zucker,200,right,-200,left,1,cross,None,x,True,0.400573968887
PE,25,männlich,Hufflepuff,die,Der Pate,38,0,16,Treue,positive,-200,right,Apotheke,200,right,200,right,0.04,cross,None,m,True,0.356270074844
PE,25,männlich,Hufflepuff,die,Der Pate,38,0,17,Lachen,positive,-200,right,Brille,200,right,-200,left,0.04,cross,None,x,True,0.397738933563
PE,25,männlich,Hufflepuff,die,Der Pate,38,0,18,Regen,negative,-200,right,Anzug,200,right,-200,left,0.04,cross,None,x,True,0.392225980759
PE,25,männlich,Hufflepuff,die,Der Pate,38,0,19,Vergnügen,positive,200,right,Bank,-200,left,-200,left,0.04,cross,None,x,True,0.391794919968
PE,25,männlich,Hufflepuff,die,Der Pate,38,0,20,Genuss,positive,200,right,April,-200,left,200,right,0.04,cross,None,m,True,0.420817136765
PE,25,männlich,Hufflepuff,die,Der Pate,38,0,21,Lebensfreude,positive,-200,right,Cola,200,right,200,right,0.04,cross,None,m,True,0.667639970779
PE,25,männlich,Hufflepuff,die,Der Pate,38,0,22,Terror,negative,-200,right,Fuß,200,right,-200,left,0.04,cross,None,x,True,0.333709955215
PE,25,männlich,Hufflepuff,die,Der Pate,38,0,23,Tod,negative,-200,right,Tisch,200,right,-200,left,0.04,cross,None,x,True,0.376243829727
PE,25,männlich,Hufflepuff,die,Der Pate,38,0,24,Sicherheit,positive,-200,right,Fernseher,200,right,200,right,0.04,cross,None,m,True,0.350836992264
PE,25,männlich,Hufflepuff,die,Der Pate,38,1,0,Verehrung,positive,200,right,Zeiger,-200,left,200,right,1,hole,left,m,True,0.352292060852
PE,25,männlich,Hufflepuff,die,Der Pate,38,1,1,Sympathie,positive,-200,right,Dolmetscherin,200,right,200,right,1,hole,right,m,True,0.429286003113
PE,25,männlich,Hufflepuff,die,Der Pate,38,1,2,Solidarität,positive,-200,right,Markt,200,right,-200,left,1,hole,right,x,True,0.311414003372
PE,25,männlich,Hufflepuff,die,Der Pate,38,1,3,Krankheit,negative,200,right,Schinken,-200,left,-200,left,1,hole,right,x,True,0.453209877014
PE,25,männlich,Hufflepuff,die,Der Pate,38,1,4,Dankbarkeit,positive,-200,right,Pass,200,right,-200,left,1,hole,left,x,True,0.37624502182
PE,25,männlich,Hufflepuff,die,Der Pate,38,1,5,Müll,negative,-200,right,Herr,200,right,200,right,1,hole,right,m,True,0.31777882576
PE,25,männlich,Hufflepuff,die,Der Pate,38,1,6,Schleim,negative,-200,right,Passant,200,right,200,right,1,hole,left,m,True,0.398249864578
PE,25,männlich,Hufflepuff,die,Der Pate,38,1,7,Frieden,positive,200,right,Füller,-200,left,200,right,0.04,hole,right,m,True,0.373128890991
PE,25,männlich,Hufflepuff,die,Der Pate,38,1,8,Höflichkeit,positive,200,right,Eintrittskarte,-200,left,-200,left,1,hole,right,x,True,0.399298906326
PE,25,männlich,Hufflepuff,die,Der Pate,38,1,9,Schönheit,positive,200,right,Kaffee,-200,left,-200,left,1,hole,left,x,True,0.334479808807
PE,25,männlich,Hufflepuff,die,Der Pate,38,1,10,Freiheit,positive,-200,right,Tag,200,right,200,right,0.04,hole,right,m,True,0.315223932266
PE,25,männlich,Hufflepuff,die,Der Pate,38,1,11,Unterstützung,positive,-200,right,Zug,200,right,200,right,1,hole,right,m,True,0.279914855957
PE,25,männlich,Hufflepuff,die,Der Pate,38,1,12,Rücksichtnahme,positive,200,right,Schlüssel,-200,left,-200,left,1,hole,right,x,True,0.397125005722
PE,25,männlich,Hufflepuff,die,Der Pate,38,1,13,Waffe,negative,200,right,Bankkarte,-200,left,-200,left,0.04,hole,right,x,True,0.411763906479
PE,25,männlich,Hufflepuff,die,Der Pate,38,1,14,Zufriedenheit,positive,-200,right,Computer,200,right,-200,left,1,hole,right,x,True,1.13168001175
PE,25,männlich,Hufflepuff,die,Der Pate,38,1,15,Optimismus,positive,-200,right,Keller,200,right,-200,left,1,hole,left,x,True,0.349091053009
PE,25,männlich,Hufflepuff,die,Der Pate,38,1,16,Heimweh,negative,200,right,Hut,-200,left,-200,left,0.04,hole,right,x,True,0.356065034866
PE,25,männlich,Hufflepuff,die,Der Pate,38,1,17,Gestank,negative,-200,right,Marktplatz,200,right,200,right,1,hole,right,m,True,0.391997098923
PE,25,männlich,Hufflepuff,die,Der Pate,38,1,18,Hilfsbereitschaft,positive,200,right,RadiergummI,-200,left,-200,left,0.04,hole,right,x,True,0.358558893204
PE,25,männlich,Hufflepuff,die,Der Pate,38,1,19,Hass,negative,-200,right,Eile,200,right,-200,left,1,hole,left,x,True,0.33477807045
PE,25,männlich,Hufflepuff,die,Der Pate,38,1,20,Panik,negative,-200,right,Ausweis,200,right,-200,left,0.04,hole,right,x,True,0.336048841476
PE,25,männlich,Hufflepuff,die,Der Pate,38,1,21,Feind,negative,200,right,Dose,-200,left,200,right,1,hole,left,m,True,0.3707010746
PE,25,männlich,Hufflepuff,die,Der Pate,38,1,22,Tapferkeit,positive,200,right,Teppich,-200,left,200,right,0.04,hole,right,m,True,0.433140993118
PE,25,männlich,Hufflepuff,die,Der Pate,38,1,23,Bewunderung,positive,200,right,Wind,-200,left,-200,left,1,hole,left,x,True,0.334091901779
PE,25,männlich,Hufflepuff,die,Der Pate,38,1,24,Unfall,negative,200,right,Beschreibung,-200,left,-200,left,1,hole,left,x,True,0.33053612709
PE,25,männlich,Hufflepuff,die,Der Pate,38,2,0,Geisel,negative,200,right,Einwohner,-200,left,200,right,1,cross,None,m,True,0.353700876236
PE,25,männlich,Hufflepuff,die,Der Pate,38,2,1,Sturz,negative,-200,right,Septmeber,200,right,-200,left,1,cross,None,x,True,0.354257106781
PE,25,männlich,Hufflepuff,die,Der Pate,38,2,2,Rache,negative,200,right,März,-200,left,-200,left,0.04,cross,None,x,True,0.419852972031
PE,25,männlich,Hufflepuff,die,Der Pate,38,2,3,Gerechtigkeit,positive,-200,right,Bestellung,200,right,200,right,0.04,cross,None,m,True,0.498891115189
PE,25,männlich,Hufflepuff,die,Der Pate,38,2,4,Leidenschaft,positive,-200,right,Park,200,right,-200,left,0.04,cross,None,x,True,0.366204023361
PE,25,männlich,Hufflepuff,die,Der Pate,38,2,5,Zuverlässigkeit,positive,200,right,Garten,-200,left,200,right,1,cross,None,m,True,0.316221952438
PE,25,männlich,Hufflepuff,die,Der Pate,38,2,6,Horror,negative,-200,right,Pullover,200,right,200,right,1,cross,None,m,True,0.373486042023
PE,25,männlich,Hufflepuff,die,Der Pate,38,2,7,Armut,negative,-200,right,Drucker,200,right,200,right,0.04,cross,None,m,True,0.351747989655
PE,25,männlich,Hufflepuff,die,Der Pate,38,2,8,Bereicherung,positive,-200,right,Geburtstag,200,right,-200,left,0.04,cross,None,x,True,0.361358165741
PE,25,männlich,Hufflepuff,die,Der Pate,38,2,9,Erfolg,positive,200,right,Finger,-200,left,-200,left,1,cross,None,x,True,0.401501893997
PE,25,männlich,Hufflepuff,die,Der Pate,38,2,10,Harmonie,positive,200,right,August,-200,left,-200,left,0.04,cross,None,x,True,0.376513004303
PE,25,männlich,Hufflepuff,die,Der Pate,38,2,11,Übelkeit,negative,200,right,Dusche,-200,left,200,right,0.04,cross,None,m,True,0.346751928329
PE,25,männlich,Hufflepuff,die,Der Pate,38,2,12,Schrei,negative,-200,right,Kellner,200,right,-200,left,0.04,cross,None,x,True,0.392252922058
PE,25,männlich,Hufflepuff,die,Der Pate,38,2,13,Koma,negative,-200,right,Apfelsine,200,right,-200,left,1,cross,None,x,True,0.452060937881
PE,25,männlich,Hufflepuff,die,Der Pate,38,2,14,Eleganz,positive,-200,right,Tee,200,right,-200,left,0.04,cross,None,x,True,0.423692941666
PE,25,männlich,Hufflepuff,die,Der Pate,38,2,15,Anerkennung,positive,200,right,Diskette,-200,left,-200,left,0.04,cross,None,x,True,0.3306620121
PE,25,männlich,Hufflepuff,die,Der Pate,38,2,16,Hässlichkeit,negative,-200,right,Januar,200,right,-200,left,1,cross,None,x,True,0.30344414711
PE,25,männlich,Hufflepuff,die,Der Pate,38,2,17,Entspannung,positive,-200,right,Platz,200,right,-200,left,0.04,cross,None,x,True,0.407874822617
PE,25,männlich,Hufflepuff,die,Der Pate,38,2,18,Attraktivität,positive,200,right,Schrank,-200,left,200,right,1,cross,None,m,True,0.375771999359
PE,25,männlich,Hufflepuff,die,Der Pate,38,2,19,Glück,positive,200,right,Decke,-200,left,200,right,0.04,cross,None,m,True,0.340039968491
PE,25,männlich,Hufflepuff,die,Der Pate,38,2,20,Gesundheit,positive,-200,right,Adresse,200,right,200,right,0.04,cross,None,m,True,0.370675086975
PE,25,männlich,Hufflepuff,die,Der Pate,38,2,21,Folter,negative,200,right,Bus,-200,left,-200,left,1,cross,None,x,True,0.512784957886
PE,25,männlich,Hufflepuff,die,Der Pate,38,2,22,Schmerz,negative,200,right,Strumpf,-200,left,200,right,0.04,cross,None,m,True,0.371187925339
PE,25,männlich,Hufflepuff,die,Der Pate,38,2,23,Liebe,positive,200,right,Hafen,-200,left,-200,left,0.04,cross,None,x,True,0.347860097885
PE,25,männlich,Hufflepuff,die,Der Pate,38,2,24,Krieg,negative,200,right,Monitor,-200,left,-200,left,0.04,cross,None,x,True,0.440225839615
PE,25,männlich,Hufflepuff,die,Der Pate,38,3,0,Geschenk,positive,-200,right,Juli,200,right,-200,left,0.04,hole,right,x,True,1.567237854
PE,25,männlich,Hufflepuff,die,Der Pate,38,3,1,Verzweiflung,negative,-200,right,Dienstag,200,right,200,right,1,hole,right,m,True,0.47416806221
PE,25,männlich,Hufflepuff,die,Der Pate,38,3,2,Mut,positive,200,right,Februar,-200,left,-200,left,0.04,hole,right,x,True,0.329478025436
PE,25,männlich,Hufflepuff,die,Der Pate,38,3,3,Schatz,positive,200,right,Juni,-200,left,200,right,1,hole,left,m,True,0.348092079163
PE,25,männlich,Hufflepuff,die,Der Pate,38,3,4,Beliebtheit,positive,200,right,Stuhl,-200,left,-200,left,1,hole,left,x,True,0.335264205933
PE,25,männlich,Hufflepuff,die,Der Pate,38,3,5,Ehrlichkeit,positive,200,right,Fahrschein,-200,left,-200,left,0.04,hole,right,x,True,0.401042938232
PE,25,männlich,Hufflepuff,die,Der Pate,38,3,6,Droge,negative,-200,right,Baum,200,right,-200,left,0.04,hole,right,x,True,0.418932199478
PE,25,männlich,Hufflepuff,die,Der Pate,38,3,7,Spaß,positive,200,right,Kleiderhaken,-200,left,200,right,1,hole,right,m,True,0.305377006531
PE,25,männlich,Hufflepuff,die,Der Pate,38,3,8,Trauer,negative,-200,right,Zuschauer,200,right,200,right,0.04,hole,right,m,True,0.483066082001
PE,25,männlich,Hufflepuff,die,Der Pate,38,3,9,Freundschaft,positive,-200,right,Bluse,200,right,-200,left,0.04,hole,left,x,True,0.422327041626
PE,25,männlich,Hufflepuff,die,Der Pate,38,3,10,Wohlstand,positive,-200,right,Dezember,200,right,200,right,1,hole,left,m,True,0.323970079422
PE,25,männlich,Hufflepuff,die,Der Pate,38,3,11,Belohnung,positive,200,right,Anruf,-200,left,-200,left,0.04,hole,right,x,True,0.324193000793
PE,25,männlich,Hufflepuff,die,Der Pate,38,3,12,Kostbarkeit,positive,-200,right,Mai,200,right,-200,left,0.04,hole,left,x,True,0.361019134521
PE,25,männlich,Hufflepuff,die,Der Pate,38,3,13,Ekel,negative,200,right,Flur,-200,left,200,right,1,hole,right,m,True,0.3149330616
PE,25,männlich,Hufflepuff,die,Der Pate,38,3,14,Depression,negative,-200,right,Apfel,200,right,-200,left,1,hole,left,x,True,0.435986995697
PE,25,männlich,Hufflepuff,die,Der Pate,38,3,15,Wut,negative,-200,right,Brücke,200,right,200,right,1,hole,right,m,True,0.342691898346
PE,25,männlich,Hufflepuff,die,Der Pate,38,3,16,Mord,negative,200,right,Locher,-200,left,-200,left,1,hole,left,x,True,0.318061828613
PE,25,männlich,Hufflepuff,die,Der Pate,38,3,17,Bombe,negative,200,right,Sessel,-200,left,200,right,1,hole,right,m,True,0.274698972702
PE,25,männlich,Hufflepuff,die,Der Pate,38,3,18,Sucht,negative,200,right,Kugelschrieber,-200,left,200,right,1,hole,left,m,True,0.359414100647
PE,25,männlich,Hufflepuff,die,Der Pate,38,3,19,Gefängnis,negative,-200,right,Löffel,200,right,200,right,1,hole,right,m,True,0.349231958389
PE,25,männlich,Hufflepuff,die,Der Pate,38,3,20,Anschlag,negative,-200,right,Projektor,200,right,-200,left,0.04,hole,left,x,True,0.382542133331
PE,25,männlich,Hufflepuff,die,Der Pate,38,3,21,Schock,negative,-200,right,Name,200,right,200,right,0.04,hole,left,m,True,0.290741920471
PE,25,männlich,Hufflepuff,die,Der Pate,38,3,22,Neid,negative,-200,right,Flughafen,200,right,200,right,1,hole,left,m,True,0.32199382782
PE,25,männlich,Hufflepuff,die,Der Pate,38,3,23,Leid,negative,-200,right,Oktober,200,right,-200,left,0.04,hole,right,x,True,0.358989953995
PE,25,männlich,Hufflepuff,die,Der Pate,38,3,24,Verletzung,negative,200,right,Bibliothek,-200,left,200,right,1,hole,left,m,True,0.32869887352
