subject,age,sex,house,nutella,movie,temperature,block,trial,cue_cond,cue_valence,cue_cond_pos,cue_cond_side,cue_neutral,cue_neutral_pos,cue_neutral_side,target_pos,target_side,duration,fixation,fixation_direction,response,correct,rt
RC1,22,weiblich,Ravenclaw,die,Der Pate,36,0,0,Sturz,negative,200,right,Anzug,-200,left,200,right,1,cross,None,m,True,0.331979990005
RC1,22,weiblich,Ravenclaw,die,Der Pate,36,0,1,Verzweiflung,negative,200,right,Geburtstag,-200,left,-200,left,1,cross,None,x,True,0.294458150864
RC1,22,weiblich,Ravenclaw,die,Der Pate,36,0,2,Leid,negative,200,right,Laden,-200,left,200,right,0.04,cross,None,m,True,0.358050107956
RC1,22,weiblich,Ravenclaw,die,Der Pate,36,0,3,Krieg,negative,-200,right,Decke,200,right,200,right,0.04,cross,None,m,True,0.341426849365
RC1,22,weiblich,Ravenclaw,die,Der Pate,36,0,4,Belohnung,positive,-200,right,Dose,200,right,200,right,1,cross,None,m,True,0.279948949814
RC1,22,weiblich,Ravenclaw,die,Der Pate,36,0,5,Rache,negative,200,right,RadiergummI,-200,left,200,right,1,cross,None,m,True,0.337224960327
RC1,22,weiblich,Ravenclaw,die,Der Pate,36,0,6,Mord,negative,200,right,Platz,-200,left,200,right,0.04,cross,None,m,True,0.468512058258
RC1,22,weiblich,Ravenclaw,die,Der Pate,36,0,7,Erfolg,positive,200,right,Eintrittskarte,-200,left,-200,left,0.04,cross,None,x,True,0.482897043228
RC1,22,weiblich,Ravenclaw,die,Der Pate,36,0,8,Hass,negative,-200,right,Kugelschrieber,200,right,200,right,0.04,cross,None,m,True,0.294459104538
RC1,22,weiblich,Ravenclaw,die,Der Pate,36,0,9,Hilfsbereitschaft,positive,-200,right,Bahnhof,200,right,-200,left,1,cross,None,x,True,0.326385974884
RC1,22,weiblich,Ravenclaw,die,Der Pate,36,0,10,Folter,negative,-200,right,Supermarkt,200,right,-200,left,1,cross,None,x,True,0.34147977829
RC1,22,weiblich,Ravenclaw,die,Der Pate,36,0,11,Wut,negative,200,right,Bildschirm,-200,left,-200,left,0.04,cross,None,x,True,0.34709405899
RC1,22,weiblich,Ravenclaw,die,Der Pate,36,0,12,Sicherheit,positive,-200,right,Wagen,200,right,-200,left,0.04,cross,None,x,True,0.370248794556
RC1,22,weiblich,Ravenclaw,die,Der Pate,36,0,13,Krankheit,negative,200,right,Einwohner,-200,left,-200,left,0.04,cross,None,x,True,0.322192907333
RC1,22,weiblich,Ravenclaw,die,Der Pate,36,0,14,Rücksichtnahme,positive,-200,right,Baum,200,right,-200,left,1,cross,None,x,True,0.345833063126
RC1,22,weiblich,Ravenclaw,die,Der Pate,36,0,15,Angst,negative,200,right,Kunde,-200,left,200,right,0.04,cross,None,m,True,0.33971786499
RC1,22,weiblich,Ravenclaw,die,Der Pate,36,0,16,Qual,negative,200,right,Fußboden,-200,left,-200,left,0.04,cross,None,x,True,0.339341163635
RC1,22,weiblich,Ravenclaw,die,Der Pate,36,0,17,Tapferkeit,positive,-200,right,Kaffee,200,right,200,right,1,cross,None,m,True,0.301139831543
RC1,22,weiblich,Ravenclaw,die,Der Pate,36,0,18,Depression,negative,-200,right,Septmeber,200,right,200,right,0.04,cross,None,m,True,0.342875957489
RC1,22,weiblich,Ravenclaw,die,Der Pate,36,0,19,Panik,negative,200,right,Balkon,-200,left,200,right,1,cross,None,m,True,0.395186185837
RC1,22,weiblich,Ravenclaw,die,Der Pate,36,0,20,Ehrlichkeit,positive,200,right,Kakao,-200,left,200,right,1,cross,None,m,True,0.382577180862
RC1,22,weiblich,Ravenclaw,die,Der Pate,36,0,21,Neid,negative,200,right,Apfel,-200,left,200,right,1,cross,None,m,True,0.358518123627
RC1,22,weiblich,Ravenclaw,die,Der Pate,36,0,22,Schock,negative,200,right,Stuhl,-200,left,200,right,1,cross,None,m,True,0.481559991837
RC1,22,weiblich,Ravenclaw,die,Der Pate,36,0,23,Trauer,negative,200,right,Monitor,-200,left,200,right,0.04,cross,None,m,True,0.413108110428
RC1,22,weiblich,Ravenclaw,die,Der Pate,36,0,24,Heimweh,negative,200,right,Tag,-200,left,-200,left,1,cross,None,x,True,0.323117017746
RC1,22,weiblich,Ravenclaw,die,Der Pate,36,1,0,Tod,negative,-200,right,Dusche,200,right,200,right,0.04,hole,left,m,True,0.357219219208
RC1,22,weiblich,Ravenclaw,die,Der Pate,36,1,1,Regen,negative,200,right,Eile,-200,left,200,right,0.04,hole,right,m,True,0.392843008041
RC1,22,weiblich,Ravenclaw,die,Der Pate,36,1,2,Schönheit,positive,200,right,August,-200,left,-200,left,1,hole,right,x,True,0.469347000122
RC1,22,weiblich,Ravenclaw,die,Der Pate,36,1,3,Totschlag,negative,-200,right,Marktplatz,200,right,-200,left,0.04,hole,left,x,True,0.339632034302
RC1,22,weiblich,Ravenclaw,die,Der Pate,36,1,4,Bombe,negative,-200,right,Tisch,200,right,-200,left,1,hole,right,x,True,0.328028917313
RC1,22,weiblich,Ravenclaw,die,Der Pate,36,1,5,Feind,negative,-200,right,Finger,200,right,200,right,1,hole,right,m,True,0.354887962341
RC1,22,weiblich,Ravenclaw,die,Der Pate,36,1,6,Übelkeit,negative,200,right,Locher,-200,left,200,right,1,hole,left,m,True,0.341472864151
RC1,22,weiblich,Ravenclaw,die,Der Pate,36,1,7,Schmerz,negative,-200,right,Strumpf,200,right,200,right,1,hole,left,m,True,0.293989896774
RC1,22,weiblich,Ravenclaw,die,Der Pate,36,1,8,Gefängnis,negative,-200,right,Zuschauer,200,right,200,right,1,hole,left,m,True,0.343944072723
RC1,22,weiblich,Ravenclaw,die,Der Pate,36,1,9,Gesundheit,positive,-200,right,Schrank,200,right,-200,left,0.04,hole,left,x,True,0.342068910599
RC1,22,weiblich,Ravenclaw,die,Der Pate,36,1,10,Verletzung,negative,200,right,Dienstag,-200,left,200,right,0.04,hole,right,m,True,0.32906293869
RC1,22,weiblich,Ravenclaw,die,Der Pate,36,1,11,Reichtum,positive,-200,right,Park,200,right,-200,left,1,hole,left,x,True,0.37623500824
RC1,22,weiblich,Ravenclaw,die,Der Pate,36,1,12,Entspannung,positive,200,right,März,-200,left,200,right,0.04,hole,left,m,True,0.335124969482
RC1,22,weiblich,Ravenclaw,die,Der Pate,36,1,13,Herzlichkeit,positive,-200,right,Pullover,200,right,200,right,1,hole,left,m,True,0.310724973679
RC1,22,weiblich,Ravenclaw,die,Der Pate,36,1,14,Sucht,negative,-200,right,Keller,200,right,200,right,0.04,hole,left,m,True,0.342563152313
RC1,22,weiblich,Ravenclaw,die,Der Pate,36,1,15,Müll,negative,200,right,Bank,-200,left,-200,left,1,hole,right,x,True,0.33766412735
RC1,22,weiblich,Ravenclaw,die,Der Pate,36,1,16,Schrott,negative,200,right,Kellner,-200,left,200,right,1,hole,left,m,True,0.273121118546
RC1,22,weiblich,Ravenclaw,die,Der Pate,36,1,17,Genuss,positive,-200,right,Gast,200,right,200,right,0.04,hole,left,m,True,0.310302019119
RC1,22,weiblich,Ravenclaw,die,Der Pate,36,1,18,Hässlichkeit,negative,-200,right,Juli,200,right,200,right,0.04,hole,right,m,True,0.353844881058
RC1,22,weiblich,Ravenclaw,die,Der Pate,36,1,19,Eleganz,positive,200,right,Oktober,-200,left,200,right,1,hole,right,m,True,0.352124929428
RC1,22,weiblich,Ravenclaw,die,Der Pate,36,1,20,Mut,positive,-200,right,Flur,200,right,-200,left,1,hole,left,x,True,0.316367864609
RC1,22,weiblich,Ravenclaw,die,Der Pate,36,1,21,Treue,positive,200,right,Wind,-200,left,-200,left,0.04,hole,right,x,True,0.433616876602
RC1,22,weiblich,Ravenclaw,die,Der Pate,36,1,22,Freundschaft,positive,-200,right,Name,200,right,-200,left,1,hole,left,x,True,0.362483024597
RC1,22,weiblich,Ravenclaw,die,Der Pate,36,1,23,Unglück,negative,200,right,Bedienung,-200,left,-200,left,0.04,hole,left,x,True,0.449290037155
RC1,22,weiblich,Ravenclaw,die,Der Pate,36,1,24,Optimismus,positive,-200,right,Bankkarte,200,right,200,right,1,hole,right,m,True,0.27613401413
RC1,22,weiblich,Ravenclaw,die,Der Pate,36,2,0,Wunde,negative,-200,right,Adresse,200,right,-200,left,0.04,cross,None,x,True,0.482912063599
RC1,22,weiblich,Ravenclaw,die,Der Pate,36,2,1,Glück,positive,200,right,Bluse,-200,left,-200,left,0.04,cross,None,x,True,0.3218729496
RC1,22,weiblich,Ravenclaw,die,Der Pate,36,2,2,Horror,negative,-200,right,Bus,200,right,200,right,1,cross,None,m,True,0.323897838593
RC1,22,weiblich,Ravenclaw,die,Der Pate,36,2,3,Sympathie,positive,200,right,Apotheke,-200,left,200,right,0.04,cross,None,m,True,0.328613042831
RC1,22,weiblich,Ravenclaw,die,Der Pate,36,2,4,Attraktivität,positive,-200,right,Computer,200,right,200,right,1,cross,None,m,True,0.31711602211
RC1,22,weiblich,Ravenclaw,die,Der Pate,36,2,5,Armut,negative,-200,right,Bestellung,200,right,-200,left,1,cross,None,x,True,0.347230911255
RC1,22,weiblich,Ravenclaw,die,Der Pate,36,2,6,Zuverlässigkeit,positive,-200,right,Januar,200,right,200,right,1,cross,None,m,True,0.288172006607
RC1,22,weiblich,Ravenclaw,die,Der Pate,36,2,7,Pessimismus,negative,-200,right,Anruf,200,right,-200,left,1,cross,None,x,True,0.384426116943
RC1,22,weiblich,Ravenclaw,die,Der Pate,36,2,8,Anschlag,negative,-200,right,Februar,200,right,200,right,1,cross,None,m,True,0.419831037521
RC1,22,weiblich,Ravenclaw,die,Der Pate,36,2,9,Leidenschaft,positive,200,right,Pass,-200,left,200,right,1,cross,None,m,True,0.496515035629
RC1,22,weiblich,Ravenclaw,die,Der Pate,36,2,10,Frieden,positive,200,right,April,-200,left,200,right,0.04,cross,None,m,True,0.499444007874
RC1,22,weiblich,Ravenclaw,die,Der Pate,36,2,11,Kostbarkeit,positive,-200,right,Flughafen,200,right,200,right,0.04,cross,None,m,True,0.382195949554
RC1,22,weiblich,Ravenclaw,die,Der Pate,36,2,12,Geschenk,positive,-200,right,Beschreibung,200,right,200,right,0.04,cross,None,m,True,0.3367228508
RC1,22,weiblich,Ravenclaw,die,Der Pate,36,2,13,Droge,negative,200,right,Kleiderhaken,-200,left,-200,left,1,cross,None,x,True,0.544808864594
RC1,22,weiblich,Ravenclaw,die,Der Pate,36,2,14,Terror,negative,200,right,Fernseher,-200,left,-200,left,1,cross,None,x,True,0.534738063812
RC1,22,weiblich,Ravenclaw,die,Der Pate,36,2,15,Solidarität,positive,-200,right,Zucker,200,right,-200,left,1,cross,None,x,True,0.360764026642
RC1,22,weiblich,Ravenclaw,die,Der Pate,36,2,16,Gestank,negative,200,right,Rock,-200,left,-200,left,0.04,cross,None,x,True,0.489578008652
RC1,22,weiblich,Ravenclaw,die,Der Pate,36,2,17,Liebe,positive,200,right,Füller,-200,left,200,right,1,cross,None,m,True,0.334588050842
RC1,22,weiblich,Ravenclaw,die,Der Pate,36,2,18,Unfall,negative,200,right,Brücke,-200,left,-200,left,1,cross,None,x,True,0.34029507637
RC1,22,weiblich,Ravenclaw,die,Der Pate,36,2,19,Koma,negative,200,right,Mai,-200,left,200,right,0.04,cross,None,m,True,0.335001945496
RC1,22,weiblich,Ravenclaw,die,Der Pate,36,2,20,Freiheit,positive,200,right,Garten,-200,left,-200,left,0.04,cross,None,x,True,0.412545919418
RC1,22,weiblich,Ravenclaw,die,Der Pate,36,2,21,Trennung,negative,-200,right,Zug,200,right,-200,left,0.04,cross,None,x,True,0.359956979752
RC1,22,weiblich,Ravenclaw,die,Der Pate,36,2,22,Stärke,positive,200,right,Hafen,-200,left,200,right,0.04,cross,None,m,True,0.33292222023
RC1,22,weiblich,Ravenclaw,die,Der Pate,36,2,23,Lachen,positive,200,right,Bibliothek,-200,left,200,right,1,cross,None,m,True,0.33299279213
RC1,22,weiblich,Ravenclaw,die,Der Pate,36,2,24,Geisel,negative,200,right,Fahrschein,-200,left,200,right,0.04,cross,None,m,True,0.352333784103
RC1,22,weiblich,Ravenclaw,die,Der Pate,36,3,0,Ekel,negative,200,right,Cola,-200,left,200,right,1,hole,right,m,True,0.331321954727
RC1,22,weiblich,Ravenclaw,die,Der Pate,36,3,1,Vergnügen,positive,200,right,Zeiger,-200,left,200,right,0.04,hole,right,m,True,0.363087892532
RC1,22,weiblich,Ravenclaw,die,Der Pate,36,3,2,Schrei,negative,-200,right,Ausweis,200,right,200,right,0.04,hole,left,m,True,0.382551908493
RC1,22,weiblich,Ravenclaw,die,Der Pate,36,3,3,Wohlstand,positive,-200,right,Passant,200,right,200,right,0.04,hole,left,m,True,0.346701145172
RC1,22,weiblich,Ravenclaw,die,Der Pate,36,3,4,Bereicherung,positive,-200,right,Dezember,200,right,-200,left,0.04,hole,right,x,True,0.344129800797
RC1,22,weiblich,Ravenclaw,die,Der Pate,36,3,5,Dummheit,negative,-200,right,Sessel,200,right,-200,left,1,hole,right,x,True,0.372987985611
RC1,22,weiblich,Ravenclaw,die,Der Pate,36,3,6,Schleim,negative,-200,right,Juni,200,right,-200,left,0.04,hole,left,x,True,0.352511167526
RC1,22,weiblich,Ravenclaw,die,Der Pate,36,3,7,Waffe,negative,200,right,Dolmetscherin,-200,left,200,right,0.04,hole,left,m,True,0.387912988663
RC1,22,weiblich,Ravenclaw,die,Der Pate,36,3,8,Einsamkeit,negative,200,right,Markt,-200,left,-200,left,0.04,hole,right,x,True,0.356143951416
RC1,22,weiblich,Ravenclaw,die,Der Pate,36,3,9,Bewunderung,positive,200,right,Apfelsine,-200,left,-200,left,1,hole,right,x,True,0.357205867767
RC1,22,weiblich,Ravenclaw,die,Der Pate,36,3,10,Dankbarkeit,positive,200,right,November,-200,left,-200,left,0.04,hole,left,x,True,0.346220016479
RC1,22,weiblich,Ravenclaw,die,Der Pate,36,3,11,Schatz,positive,200,right,Löffel,-200,left,200,right,1,hole,left,m,True,0.334483861923
RC1,22,weiblich,Ravenclaw,die,Der Pate,36,3,12,Gerechtigkeit,positive,200,right,Hut,-200,left,-200,left,0.04,hole,left,x,True,0.350564002991
RC1,22,weiblich,Ravenclaw,die,Der Pate,36,3,13,Unterstützung,positive,-200,right,Schinken,200,right,-200,left,1,hole,left,x,True,0.311760902405
RC1,22,weiblich,Ravenclaw,die,Der Pate,36,3,14,Lebensfreude,positive,-200,right,Berg,200,right,-200,left,0.04,hole,right,x,True,0.343541145325
RC1,22,weiblich,Ravenclaw,die,Der Pate,36,3,15,Wohlbefinden,positive,200,right,Tee,-200,left,-200,left,0.04,hole,right,x,True,0.292964935303
RC1,22,weiblich,Ravenclaw,die,Der Pate,36,3,16,Anerkennung,positive,-200,right,Koch,200,right,200,right,1,hole,left,m,True,0.388505935669
RC1,22,weiblich,Ravenclaw,die,Der Pate,36,3,17,Kraft,positive,200,right,Schlüssel,-200,left,200,right,0.04,hole,right,m,True,0.355545043945
RC1,22,weiblich,Ravenclaw,die,Der Pate,36,3,18,Spaß,positive,200,right,Diskette,-200,left,-200,left,1,hole,left,x,True,0.358628034592
RC1,22,weiblich,Ravenclaw,die,Der Pate,36,3,19,Zufriedenheit,positive,-200,right,Projektor,200,right,-200,left,0.04,hole,left,x,True,0.417285919189
RC1,22,weiblich,Ravenclaw,die,Der Pate,36,3,20,Beliebtheit,positive,-200,right,Teppich,200,right,-200,left,1,hole,right,x,True,0.382327079773
RC1,22,weiblich,Ravenclaw,die,Der Pate,36,3,21,Höflichkeit,positive,200,right,Herr,-200,left,200,right,0.04,hole,right,m,True,0.496770143509
RC1,22,weiblich,Ravenclaw,die,Der Pate,36,3,22,Harmonie,positive,-200,right,Brille,200,right,200,right,1,hole,right,m,True,0.357584953308
RC1,22,weiblich,Ravenclaw,die,Der Pate,36,3,23,Frohsinn,positive,200,right,Drucker,-200,left,-200,left,1,hole,right,x,True,0.357161045074
RC1,22,weiblich,Ravenclaw,die,Der Pate,36,3,24,Verehrung,positive,200,right,Fuß,-200,left,200,right,1,hole,right,m,True,0.349717140198
