subject,age,sex,house,nutella,movie,temperature,block,trial,cue_cond,cue_valence,cue_cond_pos,cue_cond_side,cue_neutral,cue_neutral_pos,cue_neutral_side,target_pos,target_side,duration,fixation,fixation_direction,response,correct,rt
Zoey,24,weiblich,Slytherin,die,Pulp Fiction,39,0,0,Müll,negative,-200,right,Bank,200,right,200,right,1,cross,None,m,True,0.354258060455
Zoey,24,weiblich,Slytherin,die,Pulp Fiction,39,0,1,Regen,negative,-200,right,Apotheke,200,right,200,right,1,cross,None,m,True,0.312139987946
Zoey,24,weiblich,Slytherin,die,Pulp Fiction,39,0,2,Schock,negative,200,right,Bahnhof,-200,left,200,right,0.04,cross,None,m,True,0.373960018158
Zoey,24,weiblich,Slytherin,die,Pulp Fiction,39,0,3,Lachen,positive,200,right,Adresse,-200,left,-200,left,0.04,cross,None,m,False,0.418611049652
Zoey,24,weiblich,Slytherin,die,Pulp Fiction,39,0,4,Schleim,negative,200,right,Finger,-200,left,-200,left,0.04,cross,None,x,True,0.396086931229
Zoey,24,weiblich,Slytherin,die,Pulp Fiction,39,0,5,Gerechtigkeit,positive,200,right,Marktplatz,-200,left,-200,left,1,cross,None,x,True,0.314236879349
Zoey,24,weiblich,Slytherin,die,Pulp Fiction,39,0,6,Schatz,positive,200,right,Wind,-200,left,-200,left,0.04,cross,None,x,True,0.35390496254
Zoey,24,weiblich,Slytherin,die,Pulp Fiction,39,0,7,Schrott,negative,200,right,Drucker,-200,left,-200,left,0.04,cross,None,x,True,0.417065143585
Zoey,24,weiblich,Slytherin,die,Pulp Fiction,39,0,8,Beliebtheit,positive,-200,right,Januar,200,right,-200,left,0.04,cross,None,x,True,0.380032062531
Zoey,24,weiblich,Slytherin,die,Pulp Fiction,39,0,9,Droge,negative,-200,right,Hafen,200,right,200,right,0.04,cross,None,m,True,0.380365848541
Zoey,24,weiblich,Slytherin,die,Pulp Fiction,39,0,10,Anerkennung,positive,-200,right,Supermarkt,200,right,-200,left,1,cross,None,x,True,0.267832994461
Zoey,24,weiblich,Slytherin,die,Pulp Fiction,39,0,11,Panik,negative,-200,right,Tisch,200,right,200,right,0.04,cross,None,m,True,0.296625852585
Zoey,24,weiblich,Slytherin,die,Pulp Fiction,39,0,12,Rücksichtnahme,positive,200,right,Platz,-200,left,200,right,0.04,cross,None,m,True,0.318154096603
Zoey,24,weiblich,Slytherin,die,Pulp Fiction,39,0,13,Verletzung,negative,-200,right,Koch,200,right,200,right,1,cross,None,m,True,0.279009103775
Zoey,24,weiblich,Slytherin,die,Pulp Fiction,39,0,14,Frohsinn,positive,-200,right,Pass,200,right,-200,left,0.04,cross,None,x,True,0.35874915123
Zoey,24,weiblich,Slytherin,die,Pulp Fiction,39,0,15,Bewunderung,positive,-200,right,Teppich,200,right,-200,left,1,cross,None,x,True,0.338957071304
Zoey,24,weiblich,Slytherin,die,Pulp Fiction,39,0,16,Vergnügen,positive,200,right,Diskette,-200,left,200,right,1,cross,None,m,True,0.295480012894
Zoey,24,weiblich,Slytherin,die,Pulp Fiction,39,0,17,Entspannung,positive,200,right,Bildschirm,-200,left,-200,left,1,cross,None,x,True,0.336925983429
Zoey,24,weiblich,Slytherin,die,Pulp Fiction,39,0,18,Schrei,negative,200,right,Mai,-200,left,-200,left,0.04,cross,None,x,True,0.497262001038
Zoey,24,weiblich,Slytherin,die,Pulp Fiction,39,0,19,Mut,positive,-200,right,Projektor,200,right,-200,left,1,cross,None,x,True,0.375017881393
Zoey,24,weiblich,Slytherin,die,Pulp Fiction,39,0,20,Verehrung,positive,-200,right,Zeiger,200,right,-200,left,0.04,cross,None,x,True,0.333616018295
Zoey,24,weiblich,Slytherin,die,Pulp Fiction,39,0,21,Ehrlichkeit,positive,-200,right,Fernseher,200,right,200,right,1,cross,None,m,True,0.303334951401
Zoey,24,weiblich,Slytherin,die,Pulp Fiction,39,0,22,Terror,negative,200,right,Flughafen,-200,left,200,right,1,cross,None,m,True,0.303817987442
Zoey,24,weiblich,Slytherin,die,Pulp Fiction,39,0,23,Gesundheit,positive,200,right,Kunde,-200,left,200,right,1,cross,None,m,True,0.387629032135
Zoey,24,weiblich,Slytherin,die,Pulp Fiction,39,0,24,Gefängnis,negative,-200,right,Zug,200,right,200,right,0.04,cross,None,m,True,0.416846990585
Zoey,24,weiblich,Slytherin,die,Pulp Fiction,39,1,0,Einsamkeit,negative,200,right,Sessel,-200,left,-200,left,0.04,hole,left,x,True,0.314429998398
Zoey,24,weiblich,Slytherin,die,Pulp Fiction,39,1,1,Mord,negative,-200,right,Apfel,200,right,200,right,0.04,hole,left,m,True,0.318629026413
Zoey,24,weiblich,Slytherin,die,Pulp Fiction,39,1,2,Leidenschaft,positive,-200,right,Hut,200,right,-200,left,0.04,hole,right,x,True,0.428560972214
Zoey,24,weiblich,Slytherin,die,Pulp Fiction,39,1,3,Übelkeit,negative,-200,right,November,200,right,-200,left,1,hole,right,x,True,0.259500026703
Zoey,24,weiblich,Slytherin,die,Pulp Fiction,39,1,4,Totschlag,negative,-200,right,Stuhl,200,right,-200,left,1,hole,left,x,True,0.348070144653
Zoey,24,weiblich,Slytherin,die,Pulp Fiction,39,1,5,Sympathie,positive,-200,right,März,200,right,-200,left,0.04,hole,right,x,True,0.410215139389
Zoey,24,weiblich,Slytherin,die,Pulp Fiction,39,1,6,Armut,negative,-200,right,Locher,200,right,-200,left,1,hole,right,x,True,0.325315952301
Zoey,24,weiblich,Slytherin,die,Pulp Fiction,39,1,7,Erfolg,positive,200,right,Zuschauer,-200,left,-200,left,0.04,hole,right,x,True,0.390094995499
Zoey,24,weiblich,Slytherin,die,Pulp Fiction,39,1,8,Unfall,negative,200,right,Brille,-200,left,-200,left,1,hole,right,x,True,0.314414978027
Zoey,24,weiblich,Slytherin,die,Pulp Fiction,39,1,9,Freiheit,positive,-200,right,Name,200,right,200,right,0.04,hole,right,m,True,0.403397083282
Zoey,24,weiblich,Slytherin,die,Pulp Fiction,39,1,10,Qual,negative,200,right,Zucker,-200,left,-200,left,0.04,hole,left,x,True,0.276129007339
Zoey,24,weiblich,Slytherin,die,Pulp Fiction,39,1,11,Sucht,negative,-200,right,Fahrschein,200,right,-200,left,1,hole,right,x,True,0.31986117363
Zoey,24,weiblich,Slytherin,die,Pulp Fiction,39,1,12,Schönheit,positive,200,right,Ausweis,-200,left,-200,left,0.04,hole,right,x,True,0.33648109436
Zoey,24,weiblich,Slytherin,die,Pulp Fiction,39,1,13,Liebe,positive,-200,right,Bedienung,200,right,200,right,0.04,hole,left,m,True,0.363254070282
Zoey,24,weiblich,Slytherin,die,Pulp Fiction,39,1,14,Anschlag,negative,-200,right,Schrank,200,right,-200,left,0.04,hole,right,x,True,0.310837030411
Zoey,24,weiblich,Slytherin,die,Pulp Fiction,39,1,15,Bombe,negative,200,right,Garten,-200,left,200,right,1,hole,left,m,True,0.321576118469
Zoey,24,weiblich,Slytherin,die,Pulp Fiction,39,1,16,Spaß,positive,200,right,Eile,-200,left,200,right,1,hole,right,m,True,0.33124089241
Zoey,24,weiblich,Slytherin,die,Pulp Fiction,39,1,17,Sturz,negative,-200,right,Bibliothek,200,right,200,right,1,hole,right,m,True,0.286243915558
Zoey,24,weiblich,Slytherin,die,Pulp Fiction,39,1,18,Wut,negative,-200,right,Löffel,200,right,200,right,1,hole,right,m,True,0.293960094452
Zoey,24,weiblich,Slytherin,die,Pulp Fiction,39,1,19,Waffe,negative,-200,right,Passant,200,right,-200,left,0.04,hole,left,x,True,0.367573022842
Zoey,24,weiblich,Slytherin,die,Pulp Fiction,39,1,20,Solidarität,positive,-200,right,Decke,200,right,200,right,0.04,hole,right,m,True,0.348526000977
Zoey,24,weiblich,Slytherin,die,Pulp Fiction,39,1,21,Zufriedenheit,positive,-200,right,Keller,200,right,-200,left,0.04,hole,left,x,True,0.365055084229
Zoey,24,weiblich,Slytherin,die,Pulp Fiction,39,1,22,Feind,negative,-200,right,April,200,right,200,right,1,hole,left,m,True,0.279309988022
Zoey,24,weiblich,Slytherin,die,Pulp Fiction,39,1,23,Wohlstand,positive,200,right,Kakao,-200,left,-200,left,0.04,hole,left,x,True,0.388371944427
Zoey,24,weiblich,Slytherin,die,Pulp Fiction,39,1,24,Trauer,negative,200,right,Dienstag,-200,left,-200,left,1,hole,left,x,True,0.355674982071
Zoey,24,weiblich,Slytherin,die,Pulp Fiction,39,2,0,Tod,negative,200,right,Flur,-200,left,-200,left,1,cross,None,x,True,0.322287082672
Zoey,24,weiblich,Slytherin,die,Pulp Fiction,39,2,1,Unglück,negative,200,right,Füller,-200,left,-200,left,1,cross,None,x,True,0.327923059464
Zoey,24,weiblich,Slytherin,die,Pulp Fiction,39,2,2,Höflichkeit,positive,-200,right,Herr,200,right,200,right,1,cross,None,m,True,0.281541109085
Zoey,24,weiblich,Slytherin,die,Pulp Fiction,39,2,3,Heimweh,negative,200,right,Cola,-200,left,200,right,0.04,cross,None,m,True,0.449918031693
Zoey,24,weiblich,Slytherin,die,Pulp Fiction,39,2,4,Optimismus,positive,-200,right,Einwohner,200,right,-200,left,0.04,cross,None,x,True,0.360195875168
Zoey,24,weiblich,Slytherin,die,Pulp Fiction,39,2,5,Treue,positive,200,right,Computer,-200,left,-200,left,1,cross,None,x,True,0.392300844193
Zoey,24,weiblich,Slytherin,die,Pulp Fiction,39,2,6,Attraktivität,positive,-200,right,Anzug,200,right,-200,left,1,cross,None,x,True,0.331080913544
Zoey,24,weiblich,Slytherin,die,Pulp Fiction,39,2,7,Herzlichkeit,positive,200,right,Park,-200,left,-200,left,0.04,cross,None,x,True,0.338835000992
Zoey,24,weiblich,Slytherin,die,Pulp Fiction,39,2,8,Koma,negative,-200,right,Schinken,200,right,200,right,1,cross,None,m,True,0.342084169388
Zoey,24,weiblich,Slytherin,die,Pulp Fiction,39,2,9,Kraft,positive,-200,right,Fuß,200,right,-200,left,1,cross,None,x,True,0.368736982346
Zoey,24,weiblich,Slytherin,die,Pulp Fiction,39,2,10,Harmonie,positive,-200,right,Dezember,200,right,200,right,0.04,cross,None,m,True,0.462546110153
Zoey,24,weiblich,Slytherin,die,Pulp Fiction,39,2,11,Schmerz,negative,200,right,Dolmetscherin,-200,left,200,right,1,cross,None,m,True,0.31541800499
Zoey,24,weiblich,Slytherin,die,Pulp Fiction,39,2,12,Glück,positive,200,right,Tag,-200,left,-200,left,0.04,cross,None,x,True,0.323461055756
Zoey,24,weiblich,Slytherin,die,Pulp Fiction,39,2,13,Wunde,negative,200,right,Apfelsine,-200,left,200,right,0.04,cross,None,m,True,0.34418797493
Zoey,24,weiblich,Slytherin,die,Pulp Fiction,39,2,14,Kostbarkeit,positive,200,right,Tee,-200,left,-200,left,0.04,cross,None,x,True,0.564795017242
Zoey,24,weiblich,Slytherin,die,Pulp Fiction,39,2,15,Freundschaft,positive,200,right,Markt,-200,left,-200,left,1,cross,None,x,True,0.630589962006
Zoey,24,weiblich,Slytherin,die,Pulp Fiction,39,2,16,Ekel,negative,200,right,Pullover,-200,left,200,right,0.04,cross,None,m,True,0.33300280571
Zoey,24,weiblich,Slytherin,die,Pulp Fiction,39,2,17,Bereicherung,positive,-200,right,Dusche,200,right,200,right,1,cross,None,m,True,0.618022918701
Zoey,24,weiblich,Slytherin,die,Pulp Fiction,39,2,18,Belohnung,positive,200,right,Laden,-200,left,200,right,1,cross,None,m,True,0.31248998642
Zoey,24,weiblich,Slytherin,die,Pulp Fiction,39,2,19,Krankheit,negative,-200,right,Bestellung,200,right,200,right,1,cross,None,m,True,0.301239967346
Zoey,24,weiblich,Slytherin,die,Pulp Fiction,39,2,20,Pessimismus,negative,-200,right,Dose,200,right,200,right,1,cross,None,m,True,0.433093070984
Zoey,24,weiblich,Slytherin,die,Pulp Fiction,39,2,21,Folter,negative,-200,right,Monitor,200,right,-200,left,0.04,cross,None,x,True,0.376191139221
Zoey,24,weiblich,Slytherin,die,Pulp Fiction,39,2,22,Stärke,positive,200,right,Fußboden,-200,left,200,right,1,cross,None,m,True,0.320363044739
Zoey,24,weiblich,Slytherin,die,Pulp Fiction,39,2,23,Hass,negative,-200,right,Bluse,200,right,-200,left,0.04,cross,None,x,True,0.401175022125
Zoey,24,weiblich,Slytherin,die,Pulp Fiction,39,2,24,Unterstützung,positive,-200,right,Eintrittskarte,200,right,-200,left,1,cross,None,m,False,0.27373290062
Zoey,24,weiblich,Slytherin,die,Pulp Fiction,39,3,0,Geisel,negative,-200,right,Februar,200,right,-200,left,1,hole,right,x,True,0.414305925369
Zoey,24,weiblich,Slytherin,die,Pulp Fiction,39,3,1,Dankbarkeit,positive,200,right,Strumpf,-200,left,-200,left,1,hole,left,x,True,0.397171974182
Zoey,24,weiblich,Slytherin,die,Pulp Fiction,39,3,2,Dummheit,negative,200,right,Oktober,-200,left,-200,left,1,hole,left,x,True,0.38521194458
Zoey,24,weiblich,Slytherin,die,Pulp Fiction,39,3,3,Wohlbefinden,positive,-200,right,Berg,200,right,-200,left,0.04,hole,left,x,True,0.41309094429
Zoey,24,weiblich,Slytherin,die,Pulp Fiction,39,3,4,Genuss,positive,-200,right,Septmeber,200,right,-200,left,0.04,hole,left,x,True,0.311610221863
Zoey,24,weiblich,Slytherin,die,Pulp Fiction,39,3,5,Eleganz,positive,200,right,Baum,-200,left,200,right,0.04,hole,right,m,True,0.424884080887
Zoey,24,weiblich,Slytherin,die,Pulp Fiction,39,3,6,Verzweiflung,negative,-200,right,Beschreibung,200,right,200,right,0.04,hole,right,m,True,0.437818050385
Zoey,24,weiblich,Slytherin,die,Pulp Fiction,39,3,7,Neid,negative,-200,right,Bankkarte,200,right,200,right,0.04,hole,left,m,True,0.408354043961
Zoey,24,weiblich,Slytherin,die,Pulp Fiction,39,3,8,Geschenk,positive,-200,right,August,200,right,-200,left,0.04,hole,right,x,True,0.401827096939
Zoey,24,weiblich,Slytherin,die,Pulp Fiction,39,3,9,Gestank,negative,-200,right,Wagen,200,right,-200,left,0.04,hole,left,x,True,0.320991039276
Zoey,24,weiblich,Slytherin,die,Pulp Fiction,39,3,10,Depression,negative,-200,right,Kugelschrieber,200,right,200,right,1,hole,right,m,True,0.299568891525
Zoey,24,weiblich,Slytherin,die,Pulp Fiction,39,3,11,Sicherheit,positive,200,right,Juni,-200,left,200,right,1,hole,right,m,True,0.381534099579
Zoey,24,weiblich,Slytherin,die,Pulp Fiction,39,3,12,Zuverlässigkeit,positive,200,right,Kleiderhaken,-200,left,-200,left,0.04,hole,right,x,True,0.409817934036
Zoey,24,weiblich,Slytherin,die,Pulp Fiction,39,3,13,Horror,negative,-200,right,Schlüssel,200,right,-200,left,1,hole,left,x,True,0.399252891541
Zoey,24,weiblich,Slytherin,die,Pulp Fiction,39,3,14,Angst,negative,-200,right,RadiergummI,200,right,-200,left,0.04,hole,left,x,True,0.395913124084
Zoey,24,weiblich,Slytherin,die,Pulp Fiction,39,3,15,Leid,negative,200,right,Anruf,-200,left,200,right,1,hole,right,m,True,0.343116998672
Zoey,24,weiblich,Slytherin,die,Pulp Fiction,39,3,16,Hässlichkeit,negative,200,right,Balkon,-200,left,-200,left,0.04,hole,left,x,True,0.438610076904
Zoey,24,weiblich,Slytherin,die,Pulp Fiction,39,3,17,Reichtum,positive,200,right,Kellner,-200,left,200,right,1,hole,left,m,True,0.29233789444
Zoey,24,weiblich,Slytherin,die,Pulp Fiction,39,3,18,Tapferkeit,positive,-200,right,Brücke,200,right,-200,left,1,hole,right,x,True,0.324639081955
Zoey,24,weiblich,Slytherin,die,Pulp Fiction,39,3,19,Hilfsbereitschaft,positive,-200,right,Rock,200,right,200,right,1,hole,left,m,True,0.295518875122
Zoey,24,weiblich,Slytherin,die,Pulp Fiction,39,3,20,Frieden,positive,-200,right,Bus,200,right,-200,left,1,hole,right,x,True,0.324878931046
Zoey,24,weiblich,Slytherin,die,Pulp Fiction,39,3,21,Krieg,negative,-200,right,Geburtstag,200,right,200,right,1,hole,left,m,True,0.286334037781
Zoey,24,weiblich,Slytherin,die,Pulp Fiction,39,3,22,Lebensfreude,positive,200,right,Gast,-200,left,200,right,0.04,hole,right,m,True,0.388625144958
Zoey,24,weiblich,Slytherin,die,Pulp Fiction,39,3,23,Trennung,negative,200,right,Kaffee,-200,left,-200,left,1,hole,left,x,True,0.296261787415
Zoey,24,weiblich,Slytherin,die,Pulp Fiction,39,3,24,Rache,negative,200,right,Juli,-200,left,200,right,0.04,hole,left,m,True,0.372445106506
