"acc","accuracy","average_response_time","avg_rt","background","bidi","blickr_congruency","blickr_eins","blickr_zwei","canvas_backend","clock_backend","color_backend","compensation","coordinates","correct","correct_keyboard_response","correct_response","count_Response","count_Target_1","count_block_loop","count_block_sequence","count_end_of_experiment","count_end_of_practice","count_experiment","count_experimental_loop","count_feedback","count_fixation_dot","count_gaze_cue","count_gaze_cue_1","count_gaze_neutral","count_getting_started","count_incorrect_sound","count_instructions","count_keyboard_response","count_logger","count_neutral_gaze","count_new_form_multiple_choice","count_new_logger","count_new_sketchpad","count_new_sketchpad_1","count_new_sketchpad_2","count_new_sketchpad_3","count_practice_loop","count_reset_feedback","count_target","count_trial_sequence","count_welcome","datetime","description","disable_garbage_collection","empty_column","experiment_file","experiment_path","font_bold","font_family","font_italic","font_size","font_underline","foreground","form_clicks","form_response","form_var","fullscreen","gender_subj","height","keyboard_backend","logfile","mouse_backend","opensesame_codename","opensesame_version","repeat_cycle","response","response_feedback","response_incorrect_sound","response_keyboard_response","response_new_sketchpad_1","response_new_sketchpad_2","response_new_sketchpad_3","response_time","response_time_feedback","response_time_incorrect_sound","response_time_keyboard_response","response_time_new_sketchpad_1","response_time_new_sketchpad_2","response_time_new_sketchpad_3","response_time_welcome","response_welcome","round_decimals","sampler_backend","sex","sound_buf_size","sound_channels","sound_freq","sound_sample_size","start","subject_nr","subject_parity","time_Response","time_Target_1","time_block_loop","time_block_sequence","time_end_of_experiment","time_end_of_practice","time_experiment","time_experimental_loop","time_feedback","time_fixation_dot","time_gaze_cue","time_gaze_cue_1","time_gaze_neutral","time_getting_started","time_incorrect_sound","time_instructions","time_keyboard_response","time_logger","time_neutral_gaze","time_new_form_multiple_choice","time_new_logger","time_new_sketchpad","time_new_sketchpad_1","time_new_sketchpad_2","time_new_sketchpad_3","time_practice_loop","time_reset_feedback","time_target","time_trial_sequence","time_welcome","title","total_correct","total_response_time","total_responses","uniform_coordinates","width"
"undefined","undefined","undefined","undefined","white","no","1","rechts","links","psycho","psycho","psycho","0","uniform","NA","NA","m","0","0","0","0","NA","NA","0","0","NA","0","NA","NA","NA","NA","NA","NA","NA","0","NA","0","NA","0","NA","0","0","NA","0","NA","0","NA","Tue Feb 20 14:00:20 2018","The main experiment item","yes","","Python Experiment.osexp","/Users/johannaschuller/Documents/Uni/Master/Erstes_Semester/Python/Pruefungsleistung","no","mono","no","18","no","black","no","Ok","NA","no","Male","768","psycho","/Users/johannaschuller/Documents/Uni/Master/Erstes_Semester/Python/Pruefungsleistung/Data/subject-5.csv","psycho","Interactive Ising","3.0.7","0","None","NA","NA","NA","NA","space","NA","3000.11086464","NA","NA","NA","NA","7204.72407341","NA","NA","NA","2","legacy","Mann","1024","2","48000","-16","experiment","5","odd","311390.702009","311320.456982","310409.928083","310409.465075","NA","NA","297094.208956","310408.619165","NA","310574.120045","NA","NA","NA","NA","NA","NA","NA","314391.235113","NA","NA","NA","311390.50293","NA","297156.351089","NA","NA","NA","NA","310554.61216","NA","Tutorial: Gaze cuing","0","0","0","yes","1024"
"undefined","undefined","undefined","undefined","white","no","0","rechts","rechts","psycho","psycho","psycho","0","uniform","NA","NA","z","1","1","0","0","NA","NA","0","0","NA","1","NA","NA","NA","NA","NA","NA","NA","1","NA","0","NA","1","NA","0","0","NA","0","NA","1","NA","Tue Feb 20 14:00:20 2018","The main experiment item","yes","","Python Experiment.osexp","/Users/johannaschuller/Documents/Uni/Master/Erstes_Semester/Python/Pruefungsleistung","no","mono","no","18","no","black","no","Ok","NA","no","Male","768","psycho","/Users/johannaschuller/Documents/Uni/Master/Erstes_Semester/Python/Pruefungsleistung/Data/subject-5.csv","psycho","Interactive Ising","3.0.7","0","z","NA","NA","NA","NA","space","NA","496.284008026","NA","NA","NA","NA","7204.72407341","NA","NA","NA","2","legacy","Frau","1024","2","48000","-16","experiment","5","odd","315391.340017","315321.186066","310409.928083","310409.465075","NA","NA","297094.208956","310408.619165","NA","314574.68915","NA","NA","NA","NA","NA","NA","NA","315890.60998","NA","NA","NA","315391.139984","NA","297156.351089","NA","NA","NA","NA","314552.237034","NA","Tutorial: Gaze cuing","0","0","0","yes","1024"
"undefined","undefined","undefined","undefined","white","no","0","links","links","psycho","psycho","psycho","0","uniform","NA","NA","m","2","2","0","0","NA","NA","0","0","NA","2","NA","NA","NA","NA","NA","NA","NA","2","NA","0","NA","2","NA","0","0","NA","0","NA","2","NA","Tue Feb 20 14:00:20 2018","The main experiment item","yes","","Python Experiment.osexp","/Users/johannaschuller/Documents/Uni/Master/Erstes_Semester/Python/Pruefungsleistung","no","mono","no","18","no","black","no","Ok","NA","no","Male","768","psycho","/Users/johannaschuller/Documents/Uni/Master/Erstes_Semester/Python/Pruefungsleistung/Data/subject-5.csv","psycho","Interactive Ising","3.0.7","0","m","NA","NA","NA","NA","space","NA","326.757907867","NA","NA","NA","NA","7204.72407341","NA","NA","NA","2","legacy","Mann","1024","2","48000","-16","experiment","5","odd","316891.883135","316820.564985","310409.928083","310409.465075","NA","NA","297094.208956","310408.619165","NA","316074.07403","NA","NA","NA","NA","NA","NA","NA","317220.806122","NA","NA","NA","316891.678095","NA","297156.351089","NA","NA","NA","NA","316051.891088","NA","Tutorial: Gaze cuing","0","0","0","yes","1024"
"undefined","undefined","undefined","undefined","white","no","0","rechts","rechts","psycho","psycho","psycho","0","uniform","NA","NA","m","3","3","0","0","NA","NA","0","0","NA","3","NA","NA","NA","NA","NA","NA","NA","3","NA","0","NA","3","NA","0","0","NA","0","NA","3","NA","Tue Feb 20 14:00:20 2018","The main experiment item","yes","","Python Experiment.osexp","/Users/johannaschuller/Documents/Uni/Master/Erstes_Semester/Python/Pruefungsleistung","no","mono","no","18","no","black","no","Ok","NA","no","Male","768","psycho","/Users/johannaschuller/Documents/Uni/Master/Erstes_Semester/Python/Pruefungsleistung/Data/subject-5.csv","psycho","Interactive Ising","3.0.7","0","m","NA","NA","NA","NA","space","NA","367.558956146","NA","NA","NA","NA","7204.72407341","NA","NA","NA","2","legacy","Mann","1024","2","48000","-16","experiment","5","odd","318208.065987","318137.58707","310409.928083","310409.465075","NA","NA","297094.208956","310408.619165","NA","317391.196966","NA","NA","NA","NA","NA","NA","NA","318577.754974","NA","NA","NA","318207.865953","NA","297156.351089","NA","NA","NA","NA","317377.511024","NA","Tutorial: Gaze cuing","0","0","0","yes","1024"
"undefined","undefined","undefined","undefined","white","no","0","links","rechts","psycho","psycho","psycho","0","uniform","NA","NA","m","4","4","0","0","NA","NA","0","0","NA","4","NA","NA","NA","NA","NA","NA","NA","4","NA","0","NA","4","NA","0","0","NA","0","NA","4","NA","Tue Feb 20 14:00:20 2018","The main experiment item","yes","","Python Experiment.osexp","/Users/johannaschuller/Documents/Uni/Master/Erstes_Semester/Python/Pruefungsleistung","no","mono","no","18","no","black","no","Ok","NA","no","Male","768","psycho","/Users/johannaschuller/Documents/Uni/Master/Erstes_Semester/Python/Pruefungsleistung/Data/subject-5.csv","psycho","Interactive Ising","3.0.7","0","m","NA","NA","NA","NA","space","NA","294.186115265","NA","NA","NA","NA","7204.72407341","NA","NA","NA","2","legacy","Mann","1024","2","48000","-16","experiment","5","odd","319558.289051","319488.05213","310409.928083","310409.465075","NA","NA","297094.208956","310408.619165","NA","318741.691113","NA","NA","NA","NA","NA","NA","NA","319854.660034","NA","NA","NA","319558.089018","NA","297156.351089","NA","NA","NA","NA","318726.087093","NA","Tutorial: Gaze cuing","0","0","0","yes","1024"
"undefined","undefined","undefined","undefined","white","no","0","links","rechts","psycho","psycho","psycho","0","uniform","NA","NA","m","5","5","0","0","NA","NA","0","0","NA","5","NA","NA","NA","NA","NA","NA","NA","5","NA","0","NA","5","NA","0","0","NA","0","NA","5","NA","Tue Feb 20 14:00:20 2018","The main experiment item","yes","","Python Experiment.osexp","/Users/johannaschuller/Documents/Uni/Master/Erstes_Semester/Python/Pruefungsleistung","no","mono","no","18","no","black","no","Ok","NA","no","Male","768","psycho","/Users/johannaschuller/Documents/Uni/Master/Erstes_Semester/Python/Pruefungsleistung/Data/subject-5.csv","psycho","Interactive Ising","3.0.7","0","m","NA","NA","NA","NA","space","NA","303.235054016","NA","NA","NA","NA","7204.72407341","NA","NA","NA","2","legacy","Mann","1024","2","48000","-16","experiment","5","odd","320841.169119","320771.640062","310409.928083","310409.465075","NA","NA","297094.208956","310408.619165","NA","320025.273085","NA","NA","NA","NA","NA","NA","NA","321146.765947","NA","NA","NA","320840.970039","NA","297156.351089","NA","NA","NA","NA","320010.717154","NA","Tutorial: Gaze cuing","0","0","0","yes","1024"
"undefined","undefined","undefined","undefined","white","no","0","rechts","rechts","psycho","psycho","psycho","0","uniform","NA","NA","z","6","6","0","0","NA","NA","0","0","NA","6","NA","NA","NA","NA","NA","NA","NA","6","NA","0","NA","6","NA","0","0","NA","0","NA","6","NA","Tue Feb 20 14:00:20 2018","The main experiment item","yes","","Python Experiment.osexp","/Users/johannaschuller/Documents/Uni/Master/Erstes_Semester/Python/Pruefungsleistung","no","mono","no","18","no","black","no","Ok","NA","no","Male","768","psycho","/Users/johannaschuller/Documents/Uni/Master/Erstes_Semester/Python/Pruefungsleistung/Data/subject-5.csv","psycho","Interactive Ising","3.0.7","0","m","NA","NA","NA","NA","space","NA","251.899957657","NA","NA","NA","NA","7204.72407341","NA","NA","NA","2","legacy","Frau","1024","2","48000","-16","experiment","5","odd","322125.468969","322054.614067","310409.928083","310409.465075","NA","NA","297094.208956","310408.619165","NA","321308.221102","NA","NA","NA","NA","NA","NA","NA","322379.65703","NA","NA","NA","322125.267982","NA","297156.351089","NA","NA","NA","NA","321294.898033","NA","Tutorial: Gaze cuing","0","0","0","yes","1024"
"undefined","undefined","undefined","undefined","white","no","1","rechts","links","psycho","psycho","psycho","0","uniform","NA","NA","z","7","7","0","0","NA","NA","0","0","NA","7","NA","NA","NA","NA","NA","NA","NA","7","NA","0","NA","7","NA","0","0","NA","0","NA","7","NA","Tue Feb 20 14:00:20 2018","The main experiment item","yes","","Python Experiment.osexp","/Users/johannaschuller/Documents/Uni/Master/Erstes_Semester/Python/Pruefungsleistung","no","mono","no","18","no","black","no","Ok","NA","no","Male","768","psycho","/Users/johannaschuller/Documents/Uni/Master/Erstes_Semester/Python/Pruefungsleistung/Data/subject-5.csv","psycho","Interactive Ising","3.0.7","0","z","NA","NA","NA","NA","space","NA","447.778940201","NA","NA","NA","NA","7204.72407341","NA","NA","NA","2","legacy","Frau","1024","2","48000","-16","experiment","5","odd","323358.623028","323287.676096","310409.928083","310409.465075","NA","NA","297094.208956","310408.619165","NA","322541.275024","NA","NA","NA","NA","NA","NA","NA","323808.885098","NA","NA","NA","323358.422995","NA","297156.351089","NA","NA","NA","NA","322526.350021","NA","Tutorial: Gaze cuing","0","0","0","yes","1024"
"undefined","undefined","undefined","undefined","white","no","0","links","rechts","psycho","psycho","psycho","0","uniform","NA","NA","z","8","8","0","0","NA","NA","0","0","NA","8","NA","NA","NA","NA","NA","NA","NA","8","NA","0","NA","8","NA","0","0","NA","0","NA","8","NA","Tue Feb 20 14:00:20 2018","The main experiment item","yes","","Python Experiment.osexp","/Users/johannaschuller/Documents/Uni/Master/Erstes_Semester/Python/Pruefungsleistung","no","mono","no","18","no","black","no","Ok","NA","no","Male","768","psycho","/Users/johannaschuller/Documents/Uni/Master/Erstes_Semester/Python/Pruefungsleistung/Data/subject-5.csv","psycho","Interactive Ising","3.0.7","0","z","NA","NA","NA","NA","space","NA","298.023939133","NA","NA","NA","NA","7204.72407341","NA","NA","NA","2","legacy","Frau","1024","2","48000","-16","experiment","5","odd","324792.382002","324721.375942","310409.928083","310409.465075","NA","NA","297094.208956","310408.619165","NA","323974.931002","NA","NA","NA","NA","NA","NA","NA","325092.638016","NA","NA","NA","324792.184114","NA","297156.351089","NA","NA","NA","NA","323959.926128","NA","Tutorial: Gaze cuing","0","0","0","yes","1024"
"undefined","undefined","undefined","undefined","white","no","0","links","links","psycho","psycho","psycho","0","uniform","NA","NA","z","9","9","0","0","NA","NA","0","0","NA","9","NA","NA","NA","NA","NA","NA","NA","9","NA","0","NA","9","NA","0","0","NA","0","NA","9","NA","Tue Feb 20 14:00:20 2018","The main experiment item","yes","","Python Experiment.osexp","/Users/johannaschuller/Documents/Uni/Master/Erstes_Semester/Python/Pruefungsleistung","no","mono","no","18","no","black","no","Ok","NA","no","Male","768","psycho","/Users/johannaschuller/Documents/Uni/Master/Erstes_Semester/Python/Pruefungsleistung/Data/subject-5.csv","psycho","Interactive Ising","3.0.7","0","z","NA","NA","NA","NA","space","NA","323.501110077","NA","NA","NA","NA","7204.72407341","NA","NA","NA","2","legacy","Frau","1024","2","48000","-16","experiment","5","odd","326074.732065","326004.812002","310409.928083","310409.465075","NA","NA","297094.208956","310408.619165","NA","325258.378029","NA","NA","NA","NA","NA","NA","NA","326403.413057","NA","NA","NA","326074.532986","NA","297156.351089","NA","NA","NA","NA","325243.221045","NA","Tutorial: Gaze cuing","0","0","0","yes","1024"
"undefined","undefined","undefined","undefined","white","no","0","links","rechts","psycho","psycho","psycho","0","uniform","NA","NA","z","10","10","0","0","NA","NA","0","0","NA","10","NA","NA","NA","NA","NA","NA","NA","10","NA","0","NA","10","NA","0","0","NA","0","NA","10","NA","Tue Feb 20 14:00:20 2018","The main experiment item","yes","","Python Experiment.osexp","/Users/johannaschuller/Documents/Uni/Master/Erstes_Semester/Python/Pruefungsleistung","no","mono","no","18","no","black","no","Ok","NA","no","Male","768","psycho","/Users/johannaschuller/Documents/Uni/Master/Erstes_Semester/Python/Pruefungsleistung/Data/subject-5.csv","psycho","Interactive Ising","3.0.7","0","z","NA","NA","NA","NA","space","NA","409.077882767","NA","NA","NA","NA","7204.72407341","NA","NA","NA","2","legacy","Frau","1024","2","48000","-16","experiment","5","odd","327392.152071","327321.223021","310409.928083","310409.465075","NA","NA","297094.208956","310408.619165","NA","326574.820042","NA","NA","NA","NA","NA","NA","NA","327803.570986","NA","NA","NA","327391.952991","NA","297156.351089","NA","NA","NA","NA","326553.961992","NA","Tutorial: Gaze cuing","0","0","0","yes","1024"
"undefined","undefined","undefined","undefined","white","no","1","rechts","links","psycho","psycho","psycho","0","uniform","NA","NA","m","11","11","0","0","NA","NA","0","0","NA","11","NA","NA","NA","NA","NA","NA","NA","11","NA","0","NA","11","NA","0","0","NA","0","NA","11","NA","Tue Feb 20 14:00:20 2018","The main experiment item","yes","","Python Experiment.osexp","/Users/johannaschuller/Documents/Uni/Master/Erstes_Semester/Python/Pruefungsleistung","no","mono","no","18","no","black","no","Ok","NA","no","Male","768","psycho","/Users/johannaschuller/Documents/Uni/Master/Erstes_Semester/Python/Pruefungsleistung/Data/subject-5.csv","psycho","Interactive Ising","3.0.7","0","m","NA","NA","NA","NA","space","NA","446.83599472","NA","NA","NA","NA","7204.72407341","NA","NA","NA","2","legacy","Mann","1024","2","48000","-16","experiment","5","odd","328792.475939","328722.049952","310409.928083","310409.465075","NA","NA","297094.208956","310408.619165","NA","327975.888014","NA","NA","NA","NA","NA","NA","NA","329241.523027","NA","NA","NA","328792.276144","NA","297156.351089","NA","NA","NA","NA","327955.472946","NA","Tutorial: Gaze cuing","0","0","0","yes","1024"
"undefined","undefined","undefined","undefined","white","no","0","links","rechts","psycho","psycho","psycho","0","uniform","NA","NA","m","12","12","0","0","NA","NA","0","0","NA","12","NA","NA","NA","NA","NA","NA","NA","12","NA","0","NA","12","NA","0","0","NA","0","NA","12","NA","Tue Feb 20 14:00:20 2018","The main experiment item","yes","","Python Experiment.osexp","/Users/johannaschuller/Documents/Uni/Master/Erstes_Semester/Python/Pruefungsleistung","no","mono","no","18","no","black","no","Ok","NA","no","Male","768","psycho","/Users/johannaschuller/Documents/Uni/Master/Erstes_Semester/Python/Pruefungsleistung/Data/subject-5.csv","psycho","Interactive Ising","3.0.7","0","m","NA","NA","NA","NA","space","NA","405.299186707","NA","NA","NA","NA","7204.72407341","NA","NA","NA","2","legacy","Mann","1024","2","48000","-16","experiment","5","odd","330226.022005","330154.757977","310409.928083","310409.465075","NA","NA","297094.208956","310408.619165","NA","329408.401012","NA","NA","NA","NA","NA","NA","NA","330633.605957","NA","NA","NA","330225.823164","NA","297156.351089","NA","NA","NA","NA","329393.831968","NA","Tutorial: Gaze cuing","0","0","0","yes","1024"
"undefined","undefined","undefined","undefined","white","no","0","links","links","psycho","psycho","psycho","0","uniform","NA","NA","m","13","13","0","0","NA","NA","0","0","NA","13","NA","NA","NA","NA","NA","NA","NA","13","NA","0","NA","13","NA","0","0","NA","0","NA","13","NA","Tue Feb 20 14:00:20 2018","The main experiment item","yes","","Python Experiment.osexp","/Users/johannaschuller/Documents/Uni/Master/Erstes_Semester/Python/Pruefungsleistung","no","mono","no","18","no","black","no","Ok","NA","no","Male","768","psycho","/Users/johannaschuller/Documents/Uni/Master/Erstes_Semester/Python/Pruefungsleistung/Data/subject-5.csv","psycho","Interactive Ising","3.0.7","0","m","NA","NA","NA","NA","space","NA","341.52007103","NA","NA","NA","NA","7204.72407341","NA","NA","NA","2","legacy","Mann","1024","2","48000","-16","experiment","5","odd","331609.812975","331538.676977","310409.928083","310409.465075","NA","NA","297094.208956","310408.619165","NA","330792.252064","NA","NA","NA","NA","NA","NA","NA","331953.505039","NA","NA","NA","331609.611988","NA","297156.351089","NA","NA","NA","NA","330786.826134","NA","Tutorial: Gaze cuing","0","0","0","yes","1024"
"undefined","undefined","undefined","undefined","white","no","1","rechts","links","psycho","psycho","psycho","0","uniform","NA","NA","m","14","14","0","0","NA","NA","0","0","NA","14","NA","NA","NA","NA","NA","NA","NA","14","NA","0","NA","14","NA","0","0","NA","0","NA","14","NA","Tue Feb 20 14:00:20 2018","The main experiment item","yes","","Python Experiment.osexp","/Users/johannaschuller/Documents/Uni/Master/Erstes_Semester/Python/Pruefungsleistung","no","mono","no","18","no","black","no","Ok","NA","no","Male","768","psycho","/Users/johannaschuller/Documents/Uni/Master/Erstes_Semester/Python/Pruefungsleistung/Data/subject-5.csv","psycho","Interactive Ising","3.0.7","0","m","NA","NA","NA","NA","space","NA","379.869937897","NA","NA","NA","NA","7204.72407341","NA","NA","NA","2","legacy","Mann","1024","2","48000","-16","experiment","5","odd","332926.378965","332855.271101","310409.928083","310409.465075","NA","NA","297094.208956","310408.619165","NA","332109.59506","NA","NA","NA","NA","NA","NA","NA","333308.377028","NA","NA","NA","332926.180124","NA","297156.351089","NA","NA","NA","NA","332100.751162","NA","Tutorial: Gaze cuing","0","0","0","yes","1024"
"undefined","undefined","undefined","undefined","white","no","0","rechts","rechts","psycho","psycho","psycho","0","uniform","NA","NA","z","15","15","0","0","NA","NA","0","0","NA","15","NA","NA","NA","NA","NA","NA","NA","15","NA","0","NA","15","NA","0","0","NA","0","NA","15","NA","Tue Feb 20 14:00:20 2018","The main experiment item","yes","","Python Experiment.osexp","/Users/johannaschuller/Documents/Uni/Master/Erstes_Semester/Python/Pruefungsleistung","no","mono","no","18","no","black","no","Ok","NA","no","Male","768","psycho","/Users/johannaschuller/Documents/Uni/Master/Erstes_Semester/Python/Pruefungsleistung/Data/subject-5.csv","psycho","Interactive Ising","3.0.7","0","z","NA","NA","NA","NA","space","NA","501.367092133","NA","NA","NA","NA","7204.72407341","NA","NA","NA","2","legacy","Frau","1024","2","48000","-16","experiment","5","odd","334292.941093","334222.031116","310409.928083","310409.465075","NA","NA","297094.208956","310408.619165","NA","333475.661039","NA","NA","NA","NA","NA","NA","NA","334796.42415","NA","NA","NA","334292.742968","NA","297156.351089","NA","NA","NA","NA","333458.410978","NA","Tutorial: Gaze cuing","0","0","0","yes","1024"
"undefined","undefined","undefined","undefined","white","no","1","rechts","links","psycho","psycho","psycho","0","uniform","NA","NA","z","16","16","0","0","NA","NA","0","0","NA","16","NA","NA","NA","NA","NA","NA","NA","16","NA","0","NA","16","NA","0","0","NA","0","NA","16","NA","Tue Feb 20 14:00:20 2018","The main experiment item","yes","","Python Experiment.osexp","/Users/johannaschuller/Documents/Uni/Master/Erstes_Semester/Python/Pruefungsleistung","no","mono","no","18","no","black","no","Ok","NA","no","Male","768","psycho","/Users/johannaschuller/Documents/Uni/Master/Erstes_Semester/Python/Pruefungsleistung/Data/subject-5.csv","psycho","Interactive Ising","3.0.7","0","z","NA","NA","NA","NA","space","NA","353.594064713","NA","NA","NA","NA","7204.72407341","NA","NA","NA","2","legacy","Frau","1024","2","48000","-16","experiment","5","odd","335776.450157","335706.836939","310409.928083","310409.465075","NA","NA","297094.208956","310408.619165","NA","334960.426092","NA","NA","NA","NA","NA","NA","NA","336132.40099","NA","NA","NA","335776.250124","NA","297156.351089","NA","NA","NA","NA","334946.494102","NA","Tutorial: Gaze cuing","0","0","0","yes","1024"
"undefined","undefined","undefined","undefined","white","no","1","rechts","links","psycho","psycho","psycho","0","uniform","NA","NA","z","17","17","0","0","NA","NA","0","0","NA","17","NA","NA","NA","NA","NA","NA","NA","17","NA","0","NA","17","NA","0","0","NA","0","NA","17","NA","Tue Feb 20 14:00:20 2018","The main experiment item","yes","","Python Experiment.osexp","/Users/johannaschuller/Documents/Uni/Master/Erstes_Semester/Python/Pruefungsleistung","no","mono","no","18","no","black","no","Ok","NA","no","Male","768","psycho","/Users/johannaschuller/Documents/Uni/Master/Erstes_Semester/Python/Pruefungsleistung/Data/subject-5.csv","psycho","Interactive Ising","3.0.7","0","z","NA","NA","NA","NA","space","NA","367.694139481","NA","NA","NA","NA","7204.72407341","NA","NA","NA","2","legacy","Frau","1024","2","48000","-16","experiment","5","odd","337143.311024","337072.128057","310409.928083","310409.465075","NA","NA","297094.208956","310408.619165","NA","336325.725079","NA","NA","NA","NA","NA","NA","NA","337513.194084","NA","NA","NA","337143.110991","NA","297156.351089","NA","NA","NA","NA","336310.677052","NA","Tutorial: Gaze cuing","0","0","0","yes","1024"
"undefined","undefined","undefined","undefined","white","no","0","rechts","rechts","psycho","psycho","psycho","0","uniform","NA","NA","m","18","18","0","0","NA","NA","0","0","NA","18","NA","NA","NA","NA","NA","NA","NA","18","NA","0","NA","18","NA","0","0","NA","0","NA","18","NA","Tue Feb 20 14:00:20 2018","The main experiment item","yes","","Python Experiment.osexp","/Users/johannaschuller/Documents/Uni/Master/Erstes_Semester/Python/Pruefungsleistung","no","mono","no","18","no","black","no","Ok","NA","no","Male","768","psycho","/Users/johannaschuller/Documents/Uni/Master/Erstes_Semester/Python/Pruefungsleistung/Data/subject-5.csv","psycho","Interactive Ising","3.0.7","0","z","NA","NA","NA","NA","space","NA","358.947038651","NA","NA","NA","NA","7204.72407341","NA","NA","NA","2","legacy","Mann","1024","2","48000","-16","experiment","5","odd","338493.083954","338423.058987","310409.928083","310409.465075","NA","NA","297094.208956","310408.619165","NA","337676.671028","NA","NA","NA","NA","NA","NA","NA","338854.205132","NA","NA","NA","338492.88702","NA","297156.351089","NA","NA","NA","NA","337670.269966","NA","Tutorial: Gaze cuing","0","0","0","yes","1024"
"undefined","undefined","undefined","undefined","white","no","0","links","rechts","psycho","psycho","psycho","0","uniform","NA","NA","z","19","19","0","0","NA","NA","0","0","NA","19","NA","NA","NA","NA","NA","NA","NA","19","NA","0","NA","19","NA","0","0","NA","0","NA","19","NA","Tue Feb 20 14:00:20 2018","The main experiment item","yes","","Python Experiment.osexp","/Users/johannaschuller/Documents/Uni/Master/Erstes_Semester/Python/Pruefungsleistung","no","mono","no","18","no","black","no","Ok","NA","no","Male","768","psycho","/Users/johannaschuller/Documents/Uni/Master/Erstes_Semester/Python/Pruefungsleistung/Data/subject-5.csv","psycho","Interactive Ising","3.0.7","0","z","NA","NA","NA","NA","space","NA","398.552179337","NA","NA","NA","NA","7204.72407341","NA","NA","NA","2","legacy","Frau","1024","2","48000","-16","experiment","5","odd","339843.496084","339772.909164","310409.928083","310409.465075","NA","NA","297094.208956","310408.619165","NA","339026.477098","NA","NA","NA","NA","NA","NA","NA","340244.174957","NA","NA","NA","339843.297005","NA","297156.351089","NA","NA","NA","NA","339005.216122","NA","Tutorial: Gaze cuing","0","0","0","yes","1024"
"undefined","undefined","undefined","undefined","white","no","0","links","links","psycho","psycho","psycho","0","uniform","NA","NA","m","20","20","0","0","NA","NA","0","0","NA","20","NA","NA","NA","NA","NA","NA","NA","20","NA","0","NA","20","NA","0","0","NA","0","NA","20","NA","Tue Feb 20 14:00:20 2018","The main experiment item","yes","","Python Experiment.osexp","/Users/johannaschuller/Documents/Uni/Master/Erstes_Semester/Python/Pruefungsleistung","no","mono","no","18","no","black","no","Ok","NA","no","Male","768","psycho","/Users/johannaschuller/Documents/Uni/Master/Erstes_Semester/Python/Pruefungsleistung/Data/subject-5.csv","psycho","Interactive Ising","3.0.7","0","m","NA","NA","NA","NA","space","NA","384.040117264","NA","NA","NA","NA","7204.72407341","NA","NA","NA","2","legacy","Mann","1024","2","48000","-16","experiment","5","odd","341226.886988","341156.289101","310409.928083","310409.465075","NA","NA","297094.208956","310408.619165","NA","340409.901142","NA","NA","NA","NA","NA","NA","NA","341613.22403","NA","NA","NA","341226.688147","NA","297156.351089","NA","NA","NA","NA","340391.541958","NA","Tutorial: Gaze cuing","0","0","0","yes","1024"
"undefined","undefined","undefined","undefined","white","no","0","links","links","psycho","psycho","psycho","0","uniform","NA","NA","z","21","21","0","0","NA","NA","0","0","NA","21","NA","NA","NA","NA","NA","NA","NA","21","NA","0","NA","21","NA","0","0","NA","0","NA","21","NA","Tue Feb 20 14:00:20 2018","The main experiment item","yes","","Python Experiment.osexp","/Users/johannaschuller/Documents/Uni/Master/Erstes_Semester/Python/Pruefungsleistung","no","mono","no","18","no","black","no","Ok","NA","no","Male","768","psycho","/Users/johannaschuller/Documents/Uni/Master/Erstes_Semester/Python/Pruefungsleistung/Data/subject-5.csv","psycho","Interactive Ising","3.0.7","0","z","NA","NA","NA","NA","space","NA","459.583044052","NA","NA","NA","NA","7204.72407341","NA","NA","NA","2","legacy","Frau","1024","2","48000","-16","experiment","5","odd","342593.347073","342522.828102","310409.928083","310409.465075","NA","NA","297094.208956","310408.619165","NA","341776.423931","NA","NA","NA","NA","NA","NA","NA","343055.151939","NA","NA","NA","342593.147039","NA","297156.351089","NA","NA","NA","NA","341768.331051","NA","Tutorial: Gaze cuing","0","0","0","yes","1024"
"undefined","undefined","undefined","undefined","white","no","1","rechts","links","psycho","psycho","psycho","0","uniform","NA","NA","m","22","22","0","0","NA","NA","0","0","NA","22","NA","NA","NA","NA","NA","NA","NA","22","NA","0","NA","22","NA","0","0","NA","0","NA","22","NA","Tue Feb 20 14:00:20 2018","The main experiment item","yes","","Python Experiment.osexp","/Users/johannaschuller/Documents/Uni/Master/Erstes_Semester/Python/Pruefungsleistung","no","mono","no","18","no","black","no","Ok","NA","no","Male","768","psycho","/Users/johannaschuller/Documents/Uni/Master/Erstes_Semester/Python/Pruefungsleistung/Data/subject-5.csv","psycho","Interactive Ising","3.0.7","0","m","NA","NA","NA","NA","space","NA","376.127958298","NA","NA","NA","NA","7204.72407341","NA","NA","NA","2","legacy","Mann","1024","2","48000","-16","experiment","5","odd","344026.81613","343956.925154","310409.928083","310409.465075","NA","NA","297094.208956","310408.619165","NA","343210.552931","NA","NA","NA","NA","NA","NA","NA","344405.138969","NA","NA","NA","344026.613951","NA","297156.351089","NA","NA","NA","NA","343203.799009","NA","Tutorial: Gaze cuing","0","0","0","yes","1024"
"undefined","undefined","undefined","undefined","white","no","0","links","rechts","psycho","psycho","psycho","0","uniform","NA","NA","m","23","23","0","0","NA","NA","0","0","NA","23","NA","NA","NA","NA","NA","NA","NA","23","NA","0","NA","23","NA","0","0","NA","0","NA","23","NA","Tue Feb 20 14:00:20 2018","The main experiment item","yes","","Python Experiment.osexp","/Users/johannaschuller/Documents/Uni/Master/Erstes_Semester/Python/Pruefungsleistung","no","mono","no","18","no","black","no","Ok","NA","no","Male","768","psycho","/Users/johannaschuller/Documents/Uni/Master/Erstes_Semester/Python/Pruefungsleistung/Data/subject-5.csv","psycho","Interactive Ising","3.0.7","0","m","NA","NA","NA","NA","space","NA","488.0900383","NA","NA","NA","NA","7204.72407341","NA","NA","NA","2","legacy","Mann","1024","2","48000","-16","experiment","5","odd","345393.736124","345324.959993","310409.928083","310409.465075","NA","NA","297094.208956","310408.619165","NA","344579.50902","NA","NA","NA","NA","NA","NA","NA","345884.087086","NA","NA","NA","345393.537045","NA","297156.351089","NA","NA","NA","NA","344565.716028","NA","Tutorial: Gaze cuing","0","0","0","yes","1024"
"undefined","undefined","undefined","undefined","white","no","0","links","links","psycho","psycho","psycho","0","uniform","NA","NA","z","24","24","0","0","NA","NA","0","0","NA","24","NA","NA","NA","NA","NA","NA","NA","24","NA","0","NA","24","NA","0","0","NA","0","NA","24","NA","Tue Feb 20 14:00:20 2018","The main experiment item","yes","","Python Experiment.osexp","/Users/johannaschuller/Documents/Uni/Master/Erstes_Semester/Python/Pruefungsleistung","no","mono","no","18","no","black","no","Ok","NA","no","Male","768","psycho","/Users/johannaschuller/Documents/Uni/Master/Erstes_Semester/Python/Pruefungsleistung/Data/subject-5.csv","psycho","Interactive Ising","3.0.7","0","z","NA","NA","NA","NA","space","NA","428.202152252","NA","NA","NA","NA","7204.72407341","NA","NA","NA","2","legacy","Frau","1024","2","48000","-16","experiment","5","odd","346877.517939","346807.430029","310409.928083","310409.465075","NA","NA","297094.208956","310408.619165","NA","346061.105013","NA","NA","NA","NA","NA","NA","NA","347308.144093","NA","NA","NA","346877.318144","NA","297156.351089","NA","NA","NA","NA","346045.351028","NA","Tutorial: Gaze cuing","0","0","0","yes","1024"
"undefined","undefined","undefined","undefined","white","no","0","links","rechts","psycho","psycho","psycho","0","uniform","NA","NA","z","25","25","0","0","NA","NA","0","0","NA","25","NA","NA","NA","NA","NA","NA","NA","25","NA","0","NA","25","NA","0","0","NA","0","NA","25","NA","Tue Feb 20 14:00:20 2018","The main experiment item","yes","","Python Experiment.osexp","/Users/johannaschuller/Documents/Uni/Master/Erstes_Semester/Python/Pruefungsleistung","no","mono","no","18","no","black","no","Ok","NA","no","Male","768","psycho","/Users/johannaschuller/Documents/Uni/Master/Erstes_Semester/Python/Pruefungsleistung/Data/subject-5.csv","psycho","Interactive Ising","3.0.7","0","z","NA","NA","NA","NA","space","NA","399.655103683","NA","NA","NA","NA","7204.72407341","NA","NA","NA","2","legacy","Frau","1024","2","48000","-16","experiment","5","odd","348311.130047","348239.181042","310409.928083","310409.465075","NA","NA","297094.208956","310408.619165","NA","347493.730068","NA","NA","NA","NA","NA","NA","NA","348713.053942","NA","NA","NA","348310.932159","NA","297156.351089","NA","NA","NA","NA","347472.280979","NA","Tutorial: Gaze cuing","0","0","0","yes","1024"
"undefined","undefined","undefined","undefined","white","no","1","rechts","links","psycho","psycho","psycho","0","uniform","NA","NA","z","26","26","0","0","NA","NA","0","0","NA","26","NA","NA","NA","NA","NA","NA","NA","26","NA","0","NA","26","NA","0","0","NA","0","NA","26","NA","Tue Feb 20 14:00:20 2018","The main experiment item","yes","","Python Experiment.osexp","/Users/johannaschuller/Documents/Uni/Master/Erstes_Semester/Python/Pruefungsleistung","no","mono","no","18","no","black","no","Ok","NA","no","Male","768","psycho","/Users/johannaschuller/Documents/Uni/Master/Erstes_Semester/Python/Pruefungsleistung/Data/subject-5.csv","psycho","Interactive Ising","3.0.7","0","z","NA","NA","NA","NA","space","NA","358.299016953","NA","NA","NA","NA","7204.72407341","NA","NA","NA","2","legacy","Frau","1024","2","48000","-16","experiment","5","odd","349694.425106","349624.303102","310409.928083","310409.465075","NA","NA","297094.208956","310408.619165","NA","348877.954006","NA","NA","NA","NA","NA","NA","NA","350054.888964","NA","NA","NA","349694.226027","NA","297156.351089","NA","NA","NA","NA","348871.438026","NA","Tutorial: Gaze cuing","0","0","0","yes","1024"
"undefined","undefined","undefined","undefined","white","no","0","rechts","rechts","psycho","psycho","psycho","0","uniform","NA","NA","m","27","27","0","0","NA","NA","0","0","NA","27","NA","NA","NA","NA","NA","NA","NA","27","NA","0","NA","27","NA","0","0","NA","0","NA","27","NA","Tue Feb 20 14:00:20 2018","The main experiment item","yes","","Python Experiment.osexp","/Users/johannaschuller/Documents/Uni/Master/Erstes_Semester/Python/Pruefungsleistung","no","mono","no","18","no","black","no","Ok","NA","no","Male","768","psycho","/Users/johannaschuller/Documents/Uni/Master/Erstes_Semester/Python/Pruefungsleistung/Data/subject-5.csv","psycho","Interactive Ising","3.0.7","0","m","NA","NA","NA","NA","space","NA","322.462081909","NA","NA","NA","NA","7204.72407341","NA","NA","NA","2","legacy","Mann","1024","2","48000","-16","experiment","5","odd","351027.416945","350957.265139","310409.928083","310409.465075","NA","NA","297094.208956","310408.619165","NA","350210.835934","NA","NA","NA","NA","NA","NA","NA","351352.138996","NA","NA","NA","351027.219057","NA","297156.351089","NA","NA","NA","NA","350203.258991","NA","Tutorial: Gaze cuing","0","0","0","yes","1024"
"undefined","undefined","undefined","undefined","white","no","0","links","links","psycho","psycho","psycho","0","uniform","NA","NA","m","28","28","0","0","NA","NA","0","0","NA","28","NA","NA","NA","NA","NA","NA","NA","28","NA","0","NA","28","NA","0","0","NA","0","NA","28","NA","Tue Feb 20 14:00:20 2018","The main experiment item","yes","","Python Experiment.osexp","/Users/johannaschuller/Documents/Uni/Master/Erstes_Semester/Python/Pruefungsleistung","no","mono","no","18","no","black","no","Ok","NA","no","Male","768","psycho","/Users/johannaschuller/Documents/Uni/Master/Erstes_Semester/Python/Pruefungsleistung/Data/subject-5.csv","psycho","Interactive Ising","3.0.7","0","m","NA","NA","NA","NA","space","NA","417.21200943","NA","NA","NA","NA","7204.72407341","NA","NA","NA","2","legacy","Mann","1024","2","48000","-16","experiment","5","odd","352328.490019","352256.92606","310409.928083","310409.465075","NA","NA","297094.208956","310408.619165","NA","351511.561155","NA","NA","NA","NA","NA","NA","NA","352747.93911","NA","NA","NA","352328.290939","NA","297156.351089","NA","NA","NA","NA","351503.87907","NA","Tutorial: Gaze cuing","0","0","0","yes","1024"
"undefined","undefined","undefined","undefined","white","no","0","rechts","rechts","psycho","psycho","psycho","0","uniform","NA","NA","z","29","29","0","0","NA","NA","0","0","NA","29","NA","NA","NA","NA","NA","NA","NA","29","NA","0","NA","29","NA","0","0","NA","0","NA","29","NA","Tue Feb 20 14:00:20 2018","The main experiment item","yes","","Python Experiment.osexp","/Users/johannaschuller/Documents/Uni/Master/Erstes_Semester/Python/Pruefungsleistung","no","mono","no","18","no","black","no","Ok","NA","no","Male","768","psycho","/Users/johannaschuller/Documents/Uni/Master/Erstes_Semester/Python/Pruefungsleistung/Data/subject-5.csv","psycho","Interactive Ising","3.0.7","0","z","NA","NA","NA","NA","space","NA","335.946083069","NA","NA","NA","NA","7204.72407341","NA","NA","NA","2","legacy","Frau","1024","2","48000","-16","experiment","5","odd","353727.822065","353658.049107","310409.928083","310409.465075","NA","NA","297094.208956","310408.619165","NA","352911.656141","NA","NA","NA","NA","NA","NA","NA","354066.06698","NA","NA","NA","353727.622032","NA","297156.351089","NA","NA","NA","NA","352902.822971","NA","Tutorial: Gaze cuing","0","0","0","yes","1024"
"undefined","undefined","undefined","undefined","white","no","0","rechts","rechts","psycho","psycho","psycho","0","uniform","NA","NA","m","30","30","0","0","NA","NA","0","0","NA","30","NA","NA","NA","NA","NA","NA","NA","30","NA","0","NA","30","NA","0","0","NA","0","NA","30","NA","Tue Feb 20 14:00:20 2018","The main experiment item","yes","","Python Experiment.osexp","/Users/johannaschuller/Documents/Uni/Master/Erstes_Semester/Python/Pruefungsleistung","no","mono","no","18","no","black","no","Ok","NA","no","Male","768","psycho","/Users/johannaschuller/Documents/Uni/Master/Erstes_Semester/Python/Pruefungsleistung/Data/subject-5.csv","psycho","Interactive Ising","3.0.7","0","z","NA","NA","NA","NA","space","NA","342.511892319","NA","NA","NA","NA","7204.72407341","NA","NA","NA","2","legacy","Mann","1024","2","48000","-16","experiment","5","odd","355045.057058","354974.730968","310409.928083","310409.465075","NA","NA","297094.208956","310408.619165","NA","354228.317022","NA","NA","NA","NA","NA","NA","NA","355389.903069","NA","NA","NA","355044.857025","NA","297156.351089","NA","NA","NA","NA","354218.595028","NA","Tutorial: Gaze cuing","0","0","0","yes","1024"
"undefined","undefined","undefined","undefined","white","no","0","links","links","psycho","psycho","psycho","0","uniform","NA","NA","z","31","31","0","0","NA","NA","0","0","NA","31","NA","NA","NA","NA","NA","NA","NA","31","NA","0","NA","31","NA","0","0","NA","0","NA","31","NA","Tue Feb 20 14:00:20 2018","The main experiment item","yes","","Python Experiment.osexp","/Users/johannaschuller/Documents/Uni/Master/Erstes_Semester/Python/Pruefungsleistung","no","mono","no","18","no","black","no","Ok","NA","no","Male","768","psycho","/Users/johannaschuller/Documents/Uni/Master/Erstes_Semester/Python/Pruefungsleistung/Data/subject-5.csv","psycho","Interactive Ising","3.0.7","0","z","NA","NA","NA","NA","space","NA","520.741939545","NA","NA","NA","NA","7204.72407341","NA","NA","NA","2","legacy","Frau","1024","2","48000","-16","experiment","5","odd","356361.731052","356291.07213","310409.928083","310409.465075","NA","NA","297094.208956","310408.619165","NA","355544.715166","NA","NA","NA","NA","NA","NA","NA","356884.786129","NA","NA","NA","356361.533165","NA","297156.351089","NA","NA","NA","NA","355535.120964","NA","Tutorial: Gaze cuing","0","0","0","yes","1024"
"undefined","undefined","undefined","undefined","white","no","1","rechts","links","psycho","psycho","psycho","0","uniform","NA","NA","m","32","32","1","1","NA","NA","0","0","NA","32","NA","NA","NA","NA","NA","NA","NA","32","NA","0","NA","32","NA","0","0","NA","1","NA","32","NA","Tue Feb 20 14:00:20 2018","The main experiment item","yes","","Python Experiment.osexp","/Users/johannaschuller/Documents/Uni/Master/Erstes_Semester/Python/Pruefungsleistung","no","mono","no","18","no","black","no","Ok","NA","no","Male","768","psycho","/Users/johannaschuller/Documents/Uni/Master/Erstes_Semester/Python/Pruefungsleistung/Data/subject-5.csv","psycho","Interactive Ising","3.0.7","0","m","NA","NA","NA","NA","space","NA","424.685955048","NA","NA","NA","NA","7204.72407341","NA","NA","NA","2","legacy","Mann","1024","2","48000","-16","experiment","5","odd","357861.814976","357791.043997","356896.265984","356895.78414","NA","NA","297094.208956","310408.619165","NA","357044.70396","NA","NA","NA","NA","NA","NA","NA","358288.666964","NA","NA","NA","357861.618996","NA","297156.351089","NA","NA","NA","NA","357038.473129","NA","Tutorial: Gaze cuing","0","0","0","yes","1024"
"undefined","undefined","undefined","undefined","white","no","0","links","rechts","psycho","psycho","psycho","0","uniform","NA","NA","z","33","33","1","1","NA","NA","0","0","NA","33","NA","NA","NA","NA","NA","NA","NA","33","NA","0","NA","33","NA","0","0","NA","1","NA","33","NA","Tue Feb 20 14:00:20 2018","The main experiment item","yes","","Python Experiment.osexp","/Users/johannaschuller/Documents/Uni/Master/Erstes_Semester/Python/Pruefungsleistung","no","mono","no","18","no","black","no","Ok","NA","no","Male","768","psycho","/Users/johannaschuller/Documents/Uni/Master/Erstes_Semester/Python/Pruefungsleistung/Data/subject-5.csv","psycho","Interactive Ising","3.0.7","0","z","NA","NA","NA","NA","space","NA","536.817073822","NA","NA","NA","NA","7204.72407341","NA","NA","NA","2","legacy","Frau","1024","2","48000","-16","experiment","5","odd","359278.785944","359208.414078","356896.265984","356895.78414","NA","NA","297094.208956","310408.619165","NA","358461.996078","NA","NA","NA","NA","NA","NA","NA","359818.0511","NA","NA","NA","359278.586149","NA","297156.351089","NA","NA","NA","NA","358445.59598","NA","Tutorial: Gaze cuing","0","0","0","yes","1024"
"undefined","undefined","undefined","undefined","white","no","0","links","rechts","psycho","psycho","psycho","0","uniform","NA","NA","z","34","34","1","1","NA","NA","0","0","NA","34","NA","NA","NA","NA","NA","NA","NA","34","NA","0","NA","34","NA","0","0","NA","1","NA","34","NA","Tue Feb 20 14:00:20 2018","The main experiment item","yes","","Python Experiment.osexp","/Users/johannaschuller/Documents/Uni/Master/Erstes_Semester/Python/Pruefungsleistung","no","mono","no","18","no","black","no","Ok","NA","no","Male","768","psycho","/Users/johannaschuller/Documents/Uni/Master/Erstes_Semester/Python/Pruefungsleistung/Data/subject-5.csv","psycho","Interactive Ising","3.0.7","0","z","NA","NA","NA","NA","space","NA","371.966123581","NA","NA","NA","NA","7204.72407341","NA","NA","NA","2","legacy","Frau","1024","2","48000","-16","experiment","5","odd","360795.586109","360725.003958","356896.265984","356895.78414","NA","NA","297094.208956","310408.619165","NA","359978.574038","NA","NA","NA","NA","NA","NA","NA","361169.702053","NA","NA","NA","360795.387983","NA","297156.351089","NA","NA","NA","NA","359970.781088","NA","Tutorial: Gaze cuing","0","0","0","yes","1024"
"undefined","undefined","undefined","undefined","white","no","0","rechts","rechts","psycho","psycho","psycho","0","uniform","NA","NA","z","35","35","1","1","NA","NA","0","0","NA","35","NA","NA","NA","NA","NA","NA","NA","35","NA","0","NA","35","NA","0","0","NA","1","NA","35","NA","Tue Feb 20 14:00:20 2018","The main experiment item","yes","","Python Experiment.osexp","/Users/johannaschuller/Documents/Uni/Master/Erstes_Semester/Python/Pruefungsleistung","no","mono","no","18","no","black","no","Ok","NA","no","Male","768","psycho","/Users/johannaschuller/Documents/Uni/Master/Erstes_Semester/Python/Pruefungsleistung/Data/subject-5.csv","psycho","Interactive Ising","3.0.7","0","z","NA","NA","NA","NA","space","NA","361.763954163","NA","NA","NA","NA","7204.72407341","NA","NA","NA","2","legacy","Frau","1024","2","48000","-16","experiment","5","odd","362145.183086","362075.389147","356896.265984","356895.78414","NA","NA","297094.208956","310408.619165","NA","361329.017162","NA","NA","NA","NA","NA","NA","NA","362510.142088","NA","NA","NA","362144.986153","NA","297156.351089","NA","NA","NA","NA","361321.280003","NA","Tutorial: Gaze cuing","0","0","0","yes","1024"
"undefined","undefined","undefined","undefined","white","no","0","links","links","psycho","psycho","psycho","0","uniform","NA","NA","m","36","36","1","1","NA","NA","0","0","NA","36","NA","NA","NA","NA","NA","NA","NA","36","NA","0","NA","36","NA","0","0","NA","1","NA","36","NA","Tue Feb 20 14:00:20 2018","The main experiment item","yes","","Python Experiment.osexp","/Users/johannaschuller/Documents/Uni/Master/Erstes_Semester/Python/Pruefungsleistung","no","mono","no","18","no","black","no","Ok","NA","no","Male","768","psycho","/Users/johannaschuller/Documents/Uni/Master/Erstes_Semester/Python/Pruefungsleistung/Data/subject-5.csv","psycho","Interactive Ising","3.0.7","0","m","NA","NA","NA","NA","space","NA","337.983131409","NA","NA","NA","NA","7204.72407341","NA","NA","NA","2","legacy","Mann","1024","2","48000","-16","experiment","5","odd","363479.445934","363408.226967","356896.265984","356895.78414","NA","NA","297094.208956","310408.619165","NA","362661.826134","NA","NA","NA","NA","NA","NA","NA","363819.74411","NA","NA","NA","363479.248047","NA","297156.351089","NA","NA","NA","NA","362656.788111","NA","Tutorial: Gaze cuing","0","0","0","yes","1024"
"undefined","undefined","undefined","undefined","white","no","0","links","rechts","psycho","psycho","psycho","0","uniform","NA","NA","m","37","37","1","1","NA","NA","0","0","NA","37","NA","NA","NA","NA","NA","NA","NA","37","NA","0","NA","37","NA","0","0","NA","1","NA","37","NA","Tue Feb 20 14:00:20 2018","The main experiment item","yes","","Python Experiment.osexp","/Users/johannaschuller/Documents/Uni/Master/Erstes_Semester/Python/Pruefungsleistung","no","mono","no","18","no","black","no","Ok","NA","no","Male","768","psycho","/Users/johannaschuller/Documents/Uni/Master/Erstes_Semester/Python/Pruefungsleistung/Data/subject-5.csv","psycho","Interactive Ising","3.0.7","0","m","NA","NA","NA","NA","space","NA","393.929958344","NA","NA","NA","NA","7204.72407341","NA","NA","NA","2","legacy","Mann","1024","2","48000","-16","experiment","5","odd","364812.556028","364741.822958","356896.265984","356895.78414","NA","NA","297094.208956","310408.619165","NA","363995.444059","NA","NA","NA","NA","NA","NA","NA","365208.632946","NA","NA","NA","364812.335968","NA","297156.351089","NA","NA","NA","NA","363975.377083","NA","Tutorial: Gaze cuing","0","0","0","yes","1024"
"undefined","undefined","undefined","undefined","white","no","0","rechts","rechts","psycho","psycho","psycho","0","uniform","NA","NA","m","38","38","1","1","NA","NA","0","0","NA","38","NA","NA","NA","NA","NA","NA","NA","38","NA","0","NA","38","NA","0","0","NA","1","NA","38","NA","Tue Feb 20 14:00:20 2018","The main experiment item","yes","","Python Experiment.osexp","/Users/johannaschuller/Documents/Uni/Master/Erstes_Semester/Python/Pruefungsleistung","no","mono","no","18","no","black","no","Ok","NA","no","Male","768","psycho","/Users/johannaschuller/Documents/Uni/Master/Erstes_Semester/Python/Pruefungsleistung/Data/subject-5.csv","psycho","Interactive Ising","3.0.7","0","m","NA","NA","NA","NA","space","NA","316.783905029","NA","NA","NA","NA","7204.72407341","NA","NA","NA","2","legacy","Mann","1024","2","48000","-16","experiment","5","odd","366179.543972","366107.468128","356896.265984","356895.78414","NA","NA","297094.208956","310408.619165","NA","365362.044096","NA","NA","NA","NA","NA","NA","NA","366498.446941","NA","NA","NA","366179.342985","NA","297156.351089","NA","NA","NA","NA","365354.583025","NA","Tutorial: Gaze cuing","0","0","0","yes","1024"
"undefined","undefined","undefined","undefined","white","no","0","rechts","rechts","psycho","psycho","psycho","0","uniform","NA","NA","z","39","39","1","1","NA","NA","0","0","NA","39","NA","NA","NA","NA","NA","NA","NA","39","NA","0","NA","39","NA","0","0","NA","1","NA","39","NA","Tue Feb 20 14:00:20 2018","The main experiment item","yes","","Python Experiment.osexp","/Users/johannaschuller/Documents/Uni/Master/Erstes_Semester/Python/Pruefungsleistung","no","mono","no","18","no","black","no","Ok","NA","no","Male","768","psycho","/Users/johannaschuller/Documents/Uni/Master/Erstes_Semester/Python/Pruefungsleistung/Data/subject-5.csv","psycho","Interactive Ising","3.0.7","0","z","NA","NA","NA","NA","space","NA","349.604845047","NA","NA","NA","NA","7204.72407341","NA","NA","NA","2","legacy","Frau","1024","2","48000","-16","experiment","5","odd","367479.730129","367407.847166","356896.265984","356895.78414","NA","NA","297094.208956","310408.619165","NA","366662.426949","NA","NA","NA","NA","NA","NA","NA","367831.447124","NA","NA","NA","367479.532003","NA","297156.351089","NA","NA","NA","NA","366653.851032","NA","Tutorial: Gaze cuing","0","0","0","yes","1024"
"undefined","undefined","undefined","undefined","white","no","0","links","links","psycho","psycho","psycho","0","uniform","NA","NA","z","40","40","1","1","NA","NA","0","0","NA","40","NA","NA","NA","NA","NA","NA","NA","40","NA","0","NA","40","NA","0","0","NA","1","NA","40","NA","Tue Feb 20 14:00:20 2018","The main experiment item","yes","","Python Experiment.osexp","/Users/johannaschuller/Documents/Uni/Master/Erstes_Semester/Python/Pruefungsleistung","no","mono","no","18","no","black","no","Ok","NA","no","Male","768","psycho","/Users/johannaschuller/Documents/Uni/Master/Erstes_Semester/Python/Pruefungsleistung/Data/subject-5.csv","psycho","Interactive Ising","3.0.7","0","z","NA","NA","NA","NA","space","NA","318.18819046","NA","NA","NA","NA","7204.72407341","NA","NA","NA","2","legacy","Frau","1024","2","48000","-16","experiment","5","odd","368813.199997","368742.449999","356896.265984","356895.78414","NA","NA","297094.208956","310408.619165","NA","367996.113062","NA","NA","NA","NA","NA","NA","NA","369133.846998","NA","NA","NA","368812.99901","NA","297156.351089","NA","NA","NA","NA","367987.472057","NA","Tutorial: Gaze cuing","0","0","0","yes","1024"
"undefined","undefined","undefined","undefined","white","no","0","rechts","rechts","psycho","psycho","psycho","0","uniform","NA","NA","m","41","41","1","1","NA","NA","0","0","NA","41","NA","NA","NA","NA","NA","NA","NA","41","NA","0","NA","41","NA","0","0","NA","1","NA","41","NA","Tue Feb 20 14:00:20 2018","The main experiment item","yes","","Python Experiment.osexp","/Users/johannaschuller/Documents/Uni/Master/Erstes_Semester/Python/Pruefungsleistung","no","mono","no","18","no","black","no","Ok","NA","no","Male","768","psycho","/Users/johannaschuller/Documents/Uni/Master/Erstes_Semester/Python/Pruefungsleistung/Data/subject-5.csv","psycho","Interactive Ising","3.0.7","0","m","NA","NA","NA","NA","space","NA","350.860118866","NA","NA","NA","NA","7204.72407341","NA","NA","NA","2","legacy","Mann","1024","2","48000","-16","experiment","5","odd","370113.306999","370042.019129","356896.265984","356895.78414","NA","NA","297094.208956","310408.619165","NA","369295.597076","NA","NA","NA","NA","NA","NA","NA","370466.474056","NA","NA","NA","370113.108158","NA","297156.351089","NA","NA","NA","NA","369280.683994","NA","Tutorial: Gaze cuing","0","0","0","yes","1024"
"undefined","undefined","undefined","undefined","white","no","1","rechts","links","psycho","psycho","psycho","0","uniform","NA","NA","m","42","42","1","1","NA","NA","0","0","NA","42","NA","NA","NA","NA","NA","NA","NA","42","NA","0","NA","42","NA","0","0","NA","1","NA","42","NA","Tue Feb 20 14:00:20 2018","The main experiment item","yes","","Python Experiment.osexp","/Users/johannaschuller/Documents/Uni/Master/Erstes_Semester/Python/Pruefungsleistung","no","mono","no","18","no","black","no","Ok","NA","no","Male","768","psycho","/Users/johannaschuller/Documents/Uni/Master/Erstes_Semester/Python/Pruefungsleistung/Data/subject-5.csv","psycho","Interactive Ising","3.0.7","0","m","NA","NA","NA","NA","space","NA","387.9570961","NA","NA","NA","NA","7204.72407341","NA","NA","NA","2","legacy","Mann","1024","2","48000","-16","experiment","5","odd","371463.202953","371376.233101","356896.265984","356895.78414","NA","NA","297094.208956","310408.619165","NA","370629.878044","NA","NA","NA","NA","NA","NA","NA","371853.521109","NA","NA","NA","371463.004112","NA","297156.351089","NA","NA","NA","NA","370620.144129","NA","Tutorial: Gaze cuing","0","0","0","yes","1024"
"undefined","undefined","undefined","undefined","white","no","0","links","rechts","psycho","psycho","psycho","0","uniform","NA","NA","m","43","43","1","1","NA","NA","0","0","NA","43","NA","NA","NA","NA","NA","NA","NA","43","NA","0","NA","43","NA","0","0","NA","1","NA","43","NA","Tue Feb 20 14:00:20 2018","The main experiment item","yes","","Python Experiment.osexp","/Users/johannaschuller/Documents/Uni/Master/Erstes_Semester/Python/Pruefungsleistung","no","mono","no","18","no","black","no","Ok","NA","no","Male","768","psycho","/Users/johannaschuller/Documents/Uni/Master/Erstes_Semester/Python/Pruefungsleistung/Data/subject-5.csv","psycho","Interactive Ising","3.0.7","0","m","NA","NA","NA","NA","space","NA","343.723058701","NA","NA","NA","NA","7204.72407341","NA","NA","NA","2","legacy","Mann","1024","2","48000","-16","experiment","5","odd","372830.443144","372759.155989","356896.265984","356895.78414","NA","NA","297094.208956","310408.619165","NA","372012.751102","NA","NA","NA","NA","NA","NA","NA","373176.383018","NA","NA","NA","372830.244064","NA","297156.351089","NA","NA","NA","NA","371999.71509","NA","Tutorial: Gaze cuing","0","0","0","yes","1024"
"undefined","undefined","undefined","undefined","white","no","0","links","links","psycho","psycho","psycho","0","uniform","NA","NA","m","44","44","1","1","NA","NA","0","0","NA","44","NA","NA","NA","NA","NA","NA","NA","44","NA","0","NA","44","NA","0","0","NA","1","NA","44","NA","Tue Feb 20 14:00:20 2018","The main experiment item","yes","","Python Experiment.osexp","/Users/johannaschuller/Documents/Uni/Master/Erstes_Semester/Python/Pruefungsleistung","no","mono","no","18","no","black","no","Ok","NA","no","Male","768","psycho","/Users/johannaschuller/Documents/Uni/Master/Erstes_Semester/Python/Pruefungsleistung/Data/subject-5.csv","psycho","Interactive Ising","3.0.7","0","m","NA","NA","NA","NA","space","NA","359.03096199","NA","NA","NA","NA","7204.72407341","NA","NA","NA","2","legacy","Mann","1024","2","48000","-16","experiment","5","odd","374163.120031","374093.183994","356896.265984","356895.78414","NA","NA","297094.208956","310408.619165","NA","373346.745014","NA","NA","NA","NA","NA","NA","NA","374524.359941","NA","NA","NA","374162.919998","NA","297156.351089","NA","NA","NA","NA","373330.341101","NA","Tutorial: Gaze cuing","0","0","0","yes","1024"
"undefined","undefined","undefined","undefined","white","no","0","links","rechts","psycho","psycho","psycho","0","uniform","NA","NA","m","45","45","1","1","NA","NA","0","0","NA","45","NA","NA","NA","NA","NA","NA","NA","45","NA","0","NA","45","NA","0","0","NA","1","NA","45","NA","Tue Feb 20 14:00:20 2018","The main experiment item","yes","","Python Experiment.osexp","/Users/johannaschuller/Documents/Uni/Master/Erstes_Semester/Python/Pruefungsleistung","no","mono","no","18","no","black","no","Ok","NA","no","Male","768","psycho","/Users/johannaschuller/Documents/Uni/Master/Erstes_Semester/Python/Pruefungsleistung/Data/subject-5.csv","psycho","Interactive Ising","3.0.7","0","m","NA","NA","NA","NA","space","NA","300.623893738","NA","NA","NA","NA","7204.72407341","NA","NA","NA","2","legacy","Mann","1024","2","48000","-16","experiment","5","odd","375513.339996","375442.158937","356896.265984","356895.78414","NA","NA","297094.208956","310408.619165","NA","374696.686983","NA","NA","NA","NA","NA","NA","NA","375816.173077","NA","NA","NA","375513.139009","NA","297156.351089","NA","NA","NA","NA","374680.771112","NA","Tutorial: Gaze cuing","0","0","0","yes","1024"
"undefined","undefined","undefined","undefined","white","no","0","rechts","rechts","psycho","psycho","psycho","0","uniform","NA","NA","z","46","46","1","1","NA","NA","0","0","NA","46","NA","NA","NA","NA","NA","NA","NA","46","NA","0","NA","46","NA","0","0","NA","1","NA","46","NA","Tue Feb 20 14:00:20 2018","The main experiment item","yes","","Python Experiment.osexp","/Users/johannaschuller/Documents/Uni/Master/Erstes_Semester/Python/Pruefungsleistung","no","mono","no","18","no","black","no","Ok","NA","no","Male","768","psycho","/Users/johannaschuller/Documents/Uni/Master/Erstes_Semester/Python/Pruefungsleistung/Data/subject-5.csv","psycho","Interactive Ising","3.0.7","0","z","NA","NA","NA","NA","space","NA","406.014919281","NA","NA","NA","NA","7204.72407341","NA","NA","NA","2","legacy","Frau","1024","2","48000","-16","experiment","5","odd","376796.906948","376727.004051","356896.265984","356895.78414","NA","NA","297094.208956","310408.619165","NA","375980.576038","NA","NA","NA","NA","NA","NA","NA","377205.273151","NA","NA","NA","376796.709061","NA","297156.351089","NA","NA","NA","NA","375970.376015","NA","Tutorial: Gaze cuing","0","0","0","yes","1024"
"undefined","undefined","undefined","undefined","white","no","0","rechts","rechts","psycho","psycho","psycho","0","uniform","NA","NA","m","47","47","1","1","NA","NA","0","0","NA","47","NA","NA","NA","NA","NA","NA","NA","47","NA","0","NA","47","NA","0","0","NA","1","NA","47","NA","Tue Feb 20 14:00:20 2018","The main experiment item","yes","","Python Experiment.osexp","/Users/johannaschuller/Documents/Uni/Master/Erstes_Semester/Python/Pruefungsleistung","no","mono","no","18","no","black","no","Ok","NA","no","Male","768","psycho","/Users/johannaschuller/Documents/Uni/Master/Erstes_Semester/Python/Pruefungsleistung/Data/subject-5.csv","psycho","Interactive Ising","3.0.7","0","m","NA","NA","NA","NA","space","NA","446.393013","NA","NA","NA","NA","7204.72407341","NA","NA","NA","2","legacy","Mann","1024","2","48000","-16","experiment","5","odd","378180.626154","378109.970093","356896.265984","356895.78414","NA","NA","297094.208956","310408.619165","NA","377363.530159","NA","NA","NA","NA","NA","NA","NA","378629.244089","NA","NA","NA","378180.428028","NA","297156.351089","NA","NA","NA","NA","377358.09803","NA","Tutorial: Gaze cuing","0","0","0","yes","1024"
"undefined","undefined","undefined","undefined","white","no","0","links","rechts","psycho","psycho","psycho","0","uniform","NA","NA","m","48","48","1","1","NA","NA","0","0","NA","48","NA","NA","NA","NA","NA","NA","NA","48","NA","0","NA","48","NA","0","0","NA","1","NA","48","NA","Tue Feb 20 14:00:20 2018","The main experiment item","yes","","Python Experiment.osexp","/Users/johannaschuller/Documents/Uni/Master/Erstes_Semester/Python/Pruefungsleistung","no","mono","no","18","no","black","no","Ok","NA","no","Male","768","psycho","/Users/johannaschuller/Documents/Uni/Master/Erstes_Semester/Python/Pruefungsleistung/Data/subject-5.csv","psycho","Interactive Ising","3.0.7","0","m","NA","NA","NA","NA","space","NA","344.232082367","NA","NA","NA","NA","7204.72407341","NA","NA","NA","2","legacy","Mann","1024","2","48000","-16","experiment","5","odd","379613.688946","379543.854952","356896.265984","356895.78414","NA","NA","297094.208956","310408.619165","NA","378797.498941","NA","NA","NA","NA","NA","NA","NA","379960.116148","NA","NA","NA","379613.490105","NA","297156.351089","NA","NA","NA","NA","378788.700104","NA","Tutorial: Gaze cuing","0","0","0","yes","1024"
"undefined","undefined","undefined","undefined","white","no","0","links","links","psycho","psycho","psycho","0","uniform","NA","NA","z","49","49","1","1","NA","NA","0","0","NA","49","NA","NA","NA","NA","NA","NA","NA","49","NA","0","NA","49","NA","0","0","NA","1","NA","49","NA","Tue Feb 20 14:00:20 2018","The main experiment item","yes","","Python Experiment.osexp","/Users/johannaschuller/Documents/Uni/Master/Erstes_Semester/Python/Pruefungsleistung","no","mono","no","18","no","black","no","Ok","NA","no","Male","768","psycho","/Users/johannaschuller/Documents/Uni/Master/Erstes_Semester/Python/Pruefungsleistung/Data/subject-5.csv","psycho","Interactive Ising","3.0.7","0","m","NA","NA","NA","NA","space","NA","321.245908737","NA","NA","NA","NA","7204.72407341","NA","NA","NA","2","legacy","Frau","1024","2","48000","-16","experiment","5","odd","380947.654963","380875.659943","356896.265984","356895.78414","NA","NA","297094.208956","310408.619165","NA","380129.841089","NA","NA","NA","NA","NA","NA","NA","381271.190166","NA","NA","NA","380947.453976","NA","297156.351089","NA","NA","NA","NA","380118.294001","NA","Tutorial: Gaze cuing","0","0","0","yes","1024"
"undefined","undefined","undefined","undefined","white","no","1","rechts","links","psycho","psycho","psycho","0","uniform","NA","NA","z","50","50","1","1","NA","NA","0","0","NA","50","NA","NA","NA","NA","NA","NA","NA","50","NA","0","NA","50","NA","0","0","NA","1","NA","50","NA","Tue Feb 20 14:00:20 2018","The main experiment item","yes","","Python Experiment.osexp","/Users/johannaschuller/Documents/Uni/Master/Erstes_Semester/Python/Pruefungsleistung","no","mono","no","18","no","black","no","Ok","NA","no","Male","768","psycho","/Users/johannaschuller/Documents/Uni/Master/Erstes_Semester/Python/Pruefungsleistung/Data/subject-5.csv","psycho","Interactive Ising","3.0.7","0","z","NA","NA","NA","NA","space","NA","292.150974274","NA","NA","NA","NA","7204.72407341","NA","NA","NA","2","legacy","Frau","1024","2","48000","-16","experiment","5","odd","382247.626066","382175.941944","356896.265984","356895.78414","NA","NA","297094.208956","310408.619165","NA","381430.583954","NA","NA","NA","NA","NA","NA","NA","382541.976929","NA","NA","NA","382247.426033","NA","297156.351089","NA","NA","NA","NA","381423.167944","NA","Tutorial: Gaze cuing","0","0","0","yes","1024"
"undefined","undefined","undefined","undefined","white","no","1","rechts","links","psycho","psycho","psycho","0","uniform","NA","NA","z","51","51","1","1","NA","NA","0","0","NA","51","NA","NA","NA","NA","NA","NA","NA","51","NA","0","NA","51","NA","0","0","NA","1","NA","51","NA","Tue Feb 20 14:00:20 2018","The main experiment item","yes","","Python Experiment.osexp","/Users/johannaschuller/Documents/Uni/Master/Erstes_Semester/Python/Pruefungsleistung","no","mono","no","18","no","black","no","Ok","NA","no","Male","768","psycho","/Users/johannaschuller/Documents/Uni/Master/Erstes_Semester/Python/Pruefungsleistung/Data/subject-5.csv","psycho","Interactive Ising","3.0.7","0","z","NA","NA","NA","NA","space","NA","360.645055771","NA","NA","NA","NA","7204.72407341","NA","NA","NA","2","legacy","Frau","1024","2","48000","-16","experiment","5","odd","383514.121056","383443.535089","356896.265984","356895.78414","NA","NA","297094.208956","310408.619165","NA","382697.165012","NA","NA","NA","NA","NA","NA","NA","383877.036095","NA","NA","NA","383513.921976","NA","297156.351089","NA","NA","NA","NA","382688.630104","NA","Tutorial: Gaze cuing","0","0","0","yes","1024"
"undefined","undefined","undefined","undefined","white","no","0","links","links","psycho","psycho","psycho","0","uniform","NA","NA","z","52","52","1","1","NA","NA","0","0","NA","52","NA","NA","NA","NA","NA","NA","NA","52","NA","0","NA","52","NA","0","0","NA","1","NA","52","NA","Tue Feb 20 14:00:20 2018","The main experiment item","yes","","Python Experiment.osexp","/Users/johannaschuller/Documents/Uni/Master/Erstes_Semester/Python/Pruefungsleistung","no","mono","no","18","no","black","no","Ok","NA","no","Male","768","psycho","/Users/johannaschuller/Documents/Uni/Master/Erstes_Semester/Python/Pruefungsleistung/Data/subject-5.csv","psycho","Interactive Ising","3.0.7","0","z","NA","NA","NA","NA","space","NA","298.110961914","NA","NA","NA","NA","7204.72407341","NA","NA","NA","2","legacy","Frau","1024","2","48000","-16","experiment","5","odd","384864.73012","384794.317961","356896.265984","356895.78414","NA","NA","297094.208956","310408.619165","NA","384047.930956","NA","NA","NA","NA","NA","NA","NA","385164.946079","NA","NA","NA","384864.53414","NA","297156.351089","NA","NA","NA","NA","384030.820131","NA","Tutorial: Gaze cuing","0","0","0","yes","1024"
"undefined","undefined","undefined","undefined","white","no","0","links","links","psycho","psycho","psycho","0","uniform","NA","NA","z","53","53","1","1","NA","NA","0","0","NA","53","NA","NA","NA","NA","NA","NA","NA","53","NA","0","NA","53","NA","0","0","NA","1","NA","53","NA","Tue Feb 20 14:00:20 2018","The main experiment item","yes","","Python Experiment.osexp","/Users/johannaschuller/Documents/Uni/Master/Erstes_Semester/Python/Pruefungsleistung","no","mono","no","18","no","black","no","Ok","NA","no","Male","768","psycho","/Users/johannaschuller/Documents/Uni/Master/Erstes_Semester/Python/Pruefungsleistung/Data/subject-5.csv","psycho","Interactive Ising","3.0.7","0","z","NA","NA","NA","NA","space","NA","310.981988907","NA","NA","NA","NA","7204.72407341","NA","NA","NA","2","legacy","Frau","1024","2","48000","-16","experiment","5","odd","386147.726059","386076.883078","356896.265984","356895.78414","NA","NA","297094.208956","310408.619165","NA","385331.408978","NA","NA","NA","NA","NA","NA","NA","386461.012125","NA","NA","NA","386147.526026","NA","297156.351089","NA","NA","NA","NA","385316.967964","NA","Tutorial: Gaze cuing","0","0","0","yes","1024"
"undefined","undefined","undefined","undefined","white","no","0","rechts","rechts","psycho","psycho","psycho","0","uniform","NA","NA","m","54","54","1","1","NA","NA","0","0","NA","54","NA","NA","NA","NA","NA","NA","NA","54","NA","0","NA","54","NA","0","0","NA","1","NA","54","NA","Tue Feb 20 14:00:20 2018","The main experiment item","yes","","Python Experiment.osexp","/Users/johannaschuller/Documents/Uni/Master/Erstes_Semester/Python/Pruefungsleistung","no","mono","no","18","no","black","no","Ok","NA","no","Male","768","psycho","/Users/johannaschuller/Documents/Uni/Master/Erstes_Semester/Python/Pruefungsleistung/Data/subject-5.csv","psycho","Interactive Ising","3.0.7","0","m","NA","NA","NA","NA","space","NA","452.016830444","NA","NA","NA","NA","7204.72407341","NA","NA","NA","2","legacy","Mann","1024","2","48000","-16","experiment","5","odd","387447.739124","387377.360106","356896.265984","356895.78414","NA","NA","297094.208956","310408.619165","NA","386631.528139","NA","NA","NA","NA","NA","NA","NA","387901.910067","NA","NA","NA","387447.540045","NA","297156.351089","NA","NA","NA","NA","386618.510962","NA","Tutorial: Gaze cuing","0","0","0","yes","1024"
"undefined","undefined","undefined","undefined","white","no","1","rechts","links","psycho","psycho","psycho","0","uniform","NA","NA","m","55","55","1","1","NA","NA","0","0","NA","55","NA","NA","NA","NA","NA","NA","NA","55","NA","0","NA","55","NA","0","0","NA","1","NA","55","NA","Tue Feb 20 14:00:20 2018","The main experiment item","yes","","Python Experiment.osexp","/Users/johannaschuller/Documents/Uni/Master/Erstes_Semester/Python/Pruefungsleistung","no","mono","no","18","no","black","no","Ok","NA","no","Male","768","psycho","/Users/johannaschuller/Documents/Uni/Master/Erstes_Semester/Python/Pruefungsleistung/Data/subject-5.csv","psycho","Interactive Ising","3.0.7","0","m","NA","NA","NA","NA","space","NA","303.858995438","NA","NA","NA","NA","7204.72407341","NA","NA","NA","2","legacy","Mann","1024","2","48000","-16","experiment","5","odd","388881.885052","388810.981989","356896.265984","356895.78414","NA","NA","297094.208956","310408.619165","NA","388064.712048","NA","NA","NA","NA","NA","NA","NA","389187.978029","NA","NA","NA","388881.687164","NA","297156.351089","NA","NA","NA","NA","388048.835993","NA","Tutorial: Gaze cuing","0","0","0","yes","1024"
"undefined","undefined","undefined","undefined","white","no","0","links","rechts","psycho","psycho","psycho","0","uniform","NA","NA","z","56","56","1","1","NA","NA","0","0","NA","56","NA","NA","NA","NA","NA","NA","NA","56","NA","0","NA","56","NA","0","0","NA","1","NA","56","NA","Tue Feb 20 14:00:20 2018","The main experiment item","yes","","Python Experiment.osexp","/Users/johannaschuller/Documents/Uni/Master/Erstes_Semester/Python/Pruefungsleistung","no","mono","no","18","no","black","no","Ok","NA","no","Male","768","psycho","/Users/johannaschuller/Documents/Uni/Master/Erstes_Semester/Python/Pruefungsleistung/Data/subject-5.csv","psycho","Interactive Ising","3.0.7","0","z","NA","NA","NA","NA","space","NA","462.568044662","NA","NA","NA","NA","7204.72407341","NA","NA","NA","2","legacy","Frau","1024","2","48000","-16","experiment","5","odd","390165.179014","390094.161987","356896.265984","356895.78414","NA","NA","297094.208956","310408.619165","NA","389348.471165","NA","NA","NA","NA","NA","NA","NA","390629.958153","NA","NA","NA","390164.981127","NA","297156.351089","NA","NA","NA","NA","389337.861061","NA","Tutorial: Gaze cuing","0","0","0","yes","1024"
"undefined","undefined","undefined","undefined","white","no","0","links","links","psycho","psycho","psycho","0","uniform","NA","NA","m","57","57","1","1","NA","NA","0","0","NA","57","NA","NA","NA","NA","NA","NA","NA","57","NA","0","NA","57","NA","0","0","NA","1","NA","57","NA","Tue Feb 20 14:00:20 2018","The main experiment item","yes","","Python Experiment.osexp","/Users/johannaschuller/Documents/Uni/Master/Erstes_Semester/Python/Pruefungsleistung","no","mono","no","18","no","black","no","Ok","NA","no","Male","768","psycho","/Users/johannaschuller/Documents/Uni/Master/Erstes_Semester/Python/Pruefungsleistung/Data/subject-5.csv","psycho","Interactive Ising","3.0.7","0","m","NA","NA","NA","NA","space","NA","410.021066666","NA","NA","NA","NA","7204.72407341","NA","NA","NA","2","legacy","Mann","1024","2","48000","-16","experiment","5","odd","391615.60297","391544.819117","356896.265984","356895.78414","NA","NA","297094.208956","310408.619165","NA","390798.444033","NA","NA","NA","NA","NA","NA","NA","392027.879953","NA","NA","NA","391615.404129","NA","297156.351089","NA","NA","NA","NA","390787.251949","NA","Tutorial: Gaze cuing","0","0","0","yes","1024"
"undefined","undefined","undefined","undefined","white","no","1","rechts","links","psycho","psycho","psycho","0","uniform","NA","NA","m","58","58","1","1","NA","NA","0","0","NA","58","NA","NA","NA","NA","NA","NA","NA","58","NA","0","NA","58","NA","0","0","NA","1","NA","58","NA","Tue Feb 20 14:00:20 2018","The main experiment item","yes","","Python Experiment.osexp","/Users/johannaschuller/Documents/Uni/Master/Erstes_Semester/Python/Pruefungsleistung","no","mono","no","18","no","black","no","Ok","NA","no","Male","768","psycho","/Users/johannaschuller/Documents/Uni/Master/Erstes_Semester/Python/Pruefungsleistung/Data/subject-5.csv","psycho","Interactive Ising","3.0.7","0","m","NA","NA","NA","NA","space","NA","352.113962173","NA","NA","NA","NA","7204.72407341","NA","NA","NA","2","legacy","Mann","1024","2","48000","-16","experiment","5","odd","393015.522957","392944.273949","356896.265984","356895.78414","NA","NA","297094.208956","310408.619165","NA","392197.906971","NA","NA","NA","NA","NA","NA","NA","393369.817972","NA","NA","NA","393015.325069","NA","297156.351089","NA","NA","NA","NA","392177.742004","NA","Tutorial: Gaze cuing","0","0","0","yes","1024"
"undefined","undefined","undefined","undefined","white","no","1","rechts","links","psycho","psycho","psycho","0","uniform","NA","NA","z","59","59","1","1","NA","NA","0","0","NA","59","NA","NA","NA","NA","NA","NA","NA","59","NA","0","NA","59","NA","0","0","NA","1","NA","59","NA","Tue Feb 20 14:00:20 2018","The main experiment item","yes","","Python Experiment.osexp","/Users/johannaschuller/Documents/Uni/Master/Erstes_Semester/Python/Pruefungsleistung","no","mono","no","18","no","black","no","Ok","NA","no","Male","768","psycho","/Users/johannaschuller/Documents/Uni/Master/Erstes_Semester/Python/Pruefungsleistung/Data/subject-5.csv","psycho","Interactive Ising","3.0.7","0","z","NA","NA","NA","NA","space","NA","432.837963104","NA","NA","NA","NA","7204.72407341","NA","NA","NA","2","legacy","Frau","1024","2","48000","-16","experiment","5","odd","394349.688053","394278.023005","356896.265984","356895.78414","NA","NA","297094.208956","310408.619165","NA","393531.612158","NA","NA","NA","NA","NA","NA","NA","394784.794092","NA","NA","NA","394349.411964","NA","297156.351089","NA","NA","NA","NA","393518.440008","NA","Tutorial: Gaze cuing","0","0","0","yes","1024"
"undefined","undefined","undefined","undefined","white","no","0","links","links","psycho","psycho","psycho","0","uniform","NA","NA","m","60","60","1","1","NA","NA","0","0","NA","60","NA","NA","NA","NA","NA","NA","NA","60","NA","0","NA","60","NA","0","0","NA","1","NA","60","NA","Tue Feb 20 14:00:20 2018","The main experiment item","yes","","Python Experiment.osexp","/Users/johannaschuller/Documents/Uni/Master/Erstes_Semester/Python/Pruefungsleistung","no","mono","no","18","no","black","no","Ok","NA","no","Male","768","psycho","/Users/johannaschuller/Documents/Uni/Master/Erstes_Semester/Python/Pruefungsleistung/Data/subject-5.csv","psycho","Interactive Ising","3.0.7","0","m","NA","NA","NA","NA","space","NA","449.418067932","NA","NA","NA","NA","7204.72407341","NA","NA","NA","2","legacy","Mann","1024","2","48000","-16","experiment","5","odd","395766.138077","395693.994999","356896.265984","356895.78414","NA","NA","297094.208956","310408.619165","NA","394948.437929","NA","NA","NA","NA","NA","NA","NA","396217.684031","NA","NA","NA","395765.938997","NA","297156.351089","NA","NA","NA","NA","394929.507017","NA","Tutorial: Gaze cuing","0","0","0","yes","1024"
"undefined","undefined","undefined","undefined","white","no","0","rechts","rechts","psycho","psycho","psycho","0","uniform","NA","NA","z","61","61","1","1","NA","NA","0","0","NA","61","NA","NA","NA","NA","NA","NA","NA","61","NA","0","NA","61","NA","0","0","NA","1","NA","61","NA","Tue Feb 20 14:00:20 2018","The main experiment item","yes","","Python Experiment.osexp","/Users/johannaschuller/Documents/Uni/Master/Erstes_Semester/Python/Pruefungsleistung","no","mono","no","18","no","black","no","Ok","NA","no","Male","768","psycho","/Users/johannaschuller/Documents/Uni/Master/Erstes_Semester/Python/Pruefungsleistung/Data/subject-5.csv","psycho","Interactive Ising","3.0.7","0","z","NA","NA","NA","NA","space","NA","535.576820374","NA","NA","NA","NA","7204.72407341","NA","NA","NA","2","legacy","Frau","1024","2","48000","-16","experiment","5","odd","397198.905945","397128.679991","356896.265984","356895.78414","NA","NA","297094.208956","310408.619165","NA","396382.313967","NA","NA","NA","NA","NA","NA","NA","397736.649036","NA","NA","NA","397198.707104","NA","297156.351089","NA","NA","NA","NA","396366.253138","NA","Tutorial: Gaze cuing","0","0","0","yes","1024"
"undefined","undefined","undefined","undefined","white","no","1","rechts","links","psycho","psycho","psycho","0","uniform","NA","NA","z","62","62","1","1","NA","NA","0","0","NA","62","NA","NA","NA","NA","NA","NA","NA","62","NA","0","NA","62","NA","0","0","NA","1","NA","62","NA","Tue Feb 20 14:00:20 2018","The main experiment item","yes","","Python Experiment.osexp","/Users/johannaschuller/Documents/Uni/Master/Erstes_Semester/Python/Pruefungsleistung","no","mono","no","18","no","black","no","Ok","NA","no","Male","768","psycho","/Users/johannaschuller/Documents/Uni/Master/Erstes_Semester/Python/Pruefungsleistung/Data/subject-5.csv","psycho","Interactive Ising","3.0.7","0","m","NA","NA","NA","NA","space","NA","483.018159866","NA","NA","NA","NA","7204.72407341","NA","NA","NA","2","legacy","Frau","1024","2","48000","-16","experiment","5","odd","398715.559959","398644.822121","356896.265984","356895.78414","NA","NA","297094.208956","310408.619165","NA","397898.455143","NA","NA","NA","NA","NA","NA","NA","399200.690985","NA","NA","NA","398715.358973","NA","297156.351089","NA","NA","NA","NA","397889.938116","NA","Tutorial: Gaze cuing","0","0","0","yes","1024"
"undefined","undefined","undefined","undefined","white","no","0","links","rechts","psycho","psycho","psycho","0","uniform","NA","NA","z","63","63","1","1","NA","NA","0","0","NA","63","NA","NA","NA","NA","NA","NA","NA","63","NA","0","NA","63","NA","0","0","NA","1","NA","63","NA","Tue Feb 20 14:00:20 2018","The main experiment item","yes","","Python Experiment.osexp","/Users/johannaschuller/Documents/Uni/Master/Erstes_Semester/Python/Pruefungsleistung","no","mono","no","18","no","black","no","Ok","NA","no","Male","768","psycho","/Users/johannaschuller/Documents/Uni/Master/Erstes_Semester/Python/Pruefungsleistung/Data/subject-5.csv","psycho","Interactive Ising","3.0.7","0","z","NA","NA","NA","NA","space","NA","411.602020264","NA","NA","NA","NA","7204.72407341","NA","NA","NA","2","legacy","Frau","1024","2","48000","-16","experiment","5","odd","400182.770967","400112.231016","356896.265984","356895.78414","NA","NA","297094.208956","310408.619165","NA","399365.787029","NA","NA","NA","NA","NA","NA","NA","400596.624136","NA","NA","NA","400182.572126","NA","297156.351089","NA","NA","NA","NA","399351.933956","NA","Tutorial: Gaze cuing","0","0","0","yes","1024"
