"acc","accuracy","average_response_time","avg_rt","background","bidi","blickr_congruency","blickr_eins","blickr_zwei","canvas_backend","clock_backend","color_backend","compensation","coordinates","correct","correct_keyboard_response","correct_response","count_Response","count_Target_1","count_block_loop","count_block_sequence","count_end_of_experiment","count_end_of_practice","count_experiment","count_experimental_loop","count_feedback","count_fixation_dot","count_gaze_cue","count_gaze_cue_1","count_gaze_neutral","count_getting_started","count_incorrect_sound","count_instructions","count_keyboard_response","count_logger","count_neutral_gaze","count_new_form_multiple_choice","count_new_logger","count_new_sketchpad","count_new_sketchpad_1","count_new_sketchpad_2","count_new_sketchpad_3","count_practice_loop","count_reset_feedback","count_target","count_trial_sequence","count_welcome","datetime","description","disable_garbage_collection","empty_column","experiment_file","experiment_path","font_bold","font_family","font_italic","font_size","font_underline","foreground","form_clicks","form_response","form_var","fullscreen","gender_subj","height","keyboard_backend","logfile","mouse_backend","opensesame_codename","opensesame_version","repeat_cycle","response","response_feedback","response_incorrect_sound","response_keyboard_response","response_new_sketchpad_1","response_new_sketchpad_2","response_new_sketchpad_3","response_time","response_time_feedback","response_time_incorrect_sound","response_time_keyboard_response","response_time_new_sketchpad_1","response_time_new_sketchpad_2","response_time_new_sketchpad_3","response_time_welcome","response_welcome","round_decimals","sampler_backend","sex","sound_buf_size","sound_channels","sound_freq","sound_sample_size","start","subject_nr","subject_parity","time_Response","time_Target_1","time_block_loop","time_block_sequence","time_end_of_experiment","time_end_of_practice","time_experiment","time_experimental_loop","time_feedback","time_fixation_dot","time_gaze_cue","time_gaze_cue_1","time_gaze_neutral","time_getting_started","time_incorrect_sound","time_instructions","time_keyboard_response","time_logger","time_neutral_gaze","time_new_form_multiple_choice","time_new_logger","time_new_sketchpad","time_new_sketchpad_1","time_new_sketchpad_2","time_new_sketchpad_3","time_practice_loop","time_reset_feedback","time_target","time_trial_sequence","time_welcome","title","total_correct","total_response_time","total_responses","uniform_coordinates","width"
"undefined","undefined","undefined","undefined","white","no","0","links","links","psycho","psycho","psycho","0","uniform","NA","NA","m","0","0","0","0","NA","NA","0","0","NA","0","NA","NA","NA","NA","NA","NA","NA","0","NA","0","NA","0","NA","0","0","NA","0","NA","0","NA","Tue Feb 20 13:55:25 2018","The main experiment item","yes","","Python Experiment.osexp","/Users/johannaschuller/Documents/Uni/Master/Erstes_Semester/Python/Pruefungsleistung","no","mono","no","18","no","black","no","Ok","NA","no","Male","768","psycho","/Users/johannaschuller/Documents/Uni/Master/Erstes_Semester/Python/Pruefungsleistung/Data/subject-4.csv","psycho","Interactive Ising","3.0.7","0","None","NA","NA","NA","NA","z","NA","3000.10681152","NA","NA","NA","NA","58382.7259541","NA","NA","NA","2","legacy","Mann","1024","2","48000","-16","experiment","4","even","86851.444006","86765.1159763","85820.8360672","85820.4760551","NA","NA","4936.06495857","85819.6041584","NA","86018.6760426","NA","NA","NA","NA","NA","NA","NA","89851.9799709","NA","NA","NA","86851.2480259","NA","5010.39099693","NA","NA","NA","NA","86011.521101","NA","Tutorial: Gaze cuing","0","0","0","yes","1024"
"undefined","undefined","undefined","undefined","white","no","1","rechts","links","psycho","psycho","psycho","0","uniform","NA","NA","m","1","1","0","0","NA","NA","0","0","NA","1","NA","NA","NA","NA","NA","NA","NA","1","NA","0","NA","1","NA","0","0","NA","0","NA","1","NA","Tue Feb 20 13:55:25 2018","The main experiment item","yes","","Python Experiment.osexp","/Users/johannaschuller/Documents/Uni/Master/Erstes_Semester/Python/Pruefungsleistung","no","mono","no","18","no","black","no","Ok","NA","no","Male","768","psycho","/Users/johannaschuller/Documents/Uni/Master/Erstes_Semester/Python/Pruefungsleistung/Data/subject-4.csv","psycho","Interactive Ising","3.0.7","0","m","NA","NA","NA","NA","z","NA","1153.20301056","NA","NA","NA","NA","58382.7259541","NA","NA","NA","2","legacy","Mann","1024","2","48000","-16","experiment","4","even","90869.1380024","90781.635046","85820.8360672","85820.4760551","NA","NA","4936.06495857","85819.6041584","NA","90035.1519585","NA","NA","NA","NA","NA","NA","NA","92024.9471664","NA","NA","NA","90868.940115","NA","5010.39099693","NA","NA","NA","NA","90013.5891438","NA","Tutorial: Gaze cuing","0","0","0","yes","1024"
"undefined","undefined","undefined","undefined","white","no","0","links","rechts","psycho","psycho","psycho","0","uniform","NA","NA","z","2","2","0","0","NA","NA","0","0","NA","2","NA","NA","NA","NA","NA","NA","NA","2","NA","0","NA","2","NA","0","0","NA","0","NA","2","NA","Tue Feb 20 13:55:25 2018","The main experiment item","yes","","Python Experiment.osexp","/Users/johannaschuller/Documents/Uni/Master/Erstes_Semester/Python/Pruefungsleistung","no","mono","no","18","no","black","no","Ok","NA","no","Male","768","psycho","/Users/johannaschuller/Documents/Uni/Master/Erstes_Semester/Python/Pruefungsleistung/Data/subject-4.csv","psycho","Interactive Ising","3.0.7","0","z","NA","NA","NA","NA","z","NA","607.055902481","NA","NA","NA","NA","58382.7259541","NA","NA","NA","2","legacy","Frau","1024","2","48000","-16","experiment","4","even","93052.077055","92964.867115","85820.8360672","85820.4760551","NA","NA","4936.06495857","85819.6041584","NA","92218.4939384","NA","NA","NA","NA","NA","NA","NA","93661.6561413","NA","NA","NA","93051.8779755","NA","5010.39099693","NA","NA","NA","NA","92198.8401413","NA","Tutorial: Gaze cuing","0","0","0","yes","1024"
"undefined","undefined","undefined","undefined","white","no","0","links","rechts","psycho","psycho","psycho","0","uniform","NA","NA","m","3","3","0","0","NA","NA","0","0","NA","3","NA","NA","NA","NA","NA","NA","NA","3","NA","0","NA","3","NA","0","0","NA","0","NA","3","NA","Tue Feb 20 13:55:25 2018","The main experiment item","yes","","Python Experiment.osexp","/Users/johannaschuller/Documents/Uni/Master/Erstes_Semester/Python/Pruefungsleistung","no","mono","no","18","no","black","no","Ok","NA","no","Male","768","psycho","/Users/johannaschuller/Documents/Uni/Master/Erstes_Semester/Python/Pruefungsleistung/Data/subject-4.csv","psycho","Interactive Ising","3.0.7","0","m","NA","NA","NA","NA","z","NA","471.455097198","NA","NA","NA","NA","58382.7259541","NA","NA","NA","2","legacy","Mann","1024","2","48000","-16","experiment","4","even","94635.5941296","94565.928936","85820.8360672","85820.4760551","NA","NA","4936.06495857","85819.6041584","NA","93819.4561005","NA","NA","NA","NA","NA","NA","NA","95109.2579365","NA","NA","NA","94635.3931427","NA","5010.39099693","NA","NA","NA","NA","93812.3500347","NA","Tutorial: Gaze cuing","0","0","0","yes","1024"
"undefined","undefined","undefined","undefined","white","no","0","rechts","rechts","psycho","psycho","psycho","0","uniform","NA","NA","m","4","4","0","0","NA","NA","0","0","NA","4","NA","NA","NA","NA","NA","NA","NA","4","NA","0","NA","4","NA","0","0","NA","0","NA","4","NA","Tue Feb 20 13:55:25 2018","The main experiment item","yes","","Python Experiment.osexp","/Users/johannaschuller/Documents/Uni/Master/Erstes_Semester/Python/Pruefungsleistung","no","mono","no","18","no","black","no","Ok","NA","no","Male","768","psycho","/Users/johannaschuller/Documents/Uni/Master/Erstes_Semester/Python/Pruefungsleistung/Data/subject-4.csv","psycho","Interactive Ising","3.0.7","0","m","NA","NA","NA","NA","z","NA","513.482093811","NA","NA","NA","NA","58382.7259541","NA","NA","NA","2","legacy","Mann","1024","2","48000","-16","experiment","4","even","96102.7920246","96032.3200226","85820.8360672","85820.4760551","NA","NA","4936.06495857","85819.6041584","NA","95285.9010696","NA","NA","NA","NA","NA","NA","NA","96618.5591221","NA","NA","NA","96102.5950909","NA","5010.39099693","NA","NA","NA","NA","95269.1831589","NA","Tutorial: Gaze cuing","0","0","0","yes","1024"
"undefined","undefined","undefined","undefined","white","no","0","rechts","rechts","psycho","psycho","psycho","0","uniform","NA","NA","m","5","5","0","0","NA","NA","0","0","NA","5","NA","NA","NA","NA","NA","NA","NA","5","NA","0","NA","5","NA","0","0","NA","0","NA","5","NA","Tue Feb 20 13:55:25 2018","The main experiment item","yes","","Python Experiment.osexp","/Users/johannaschuller/Documents/Uni/Master/Erstes_Semester/Python/Pruefungsleistung","no","mono","no","18","no","black","no","Ok","NA","no","Male","768","psycho","/Users/johannaschuller/Documents/Uni/Master/Erstes_Semester/Python/Pruefungsleistung/Data/subject-4.csv","psycho","Interactive Ising","3.0.7","0","m","NA","NA","NA","NA","z","NA","544.941902161","NA","NA","NA","NA","58382.7259541","NA","NA","NA","2","legacy","Mann","1024","2","48000","-16","experiment","4","even","97603.1601429","97532.6781273","85820.8360672","85820.4760551","NA","NA","4936.06495857","85819.6041584","NA","96786.2620354","NA","NA","NA","NA","NA","NA","NA","98150.2921581","NA","NA","NA","97602.959156","NA","5010.39099693","NA","NA","NA","NA","96778.2449722","NA","Tutorial: Gaze cuing","0","0","0","yes","1024"
"undefined","undefined","undefined","undefined","white","no","0","rechts","rechts","psycho","psycho","psycho","0","uniform","NA","NA","z","6","6","0","0","NA","NA","0","0","NA","6","NA","NA","NA","NA","NA","NA","NA","6","NA","0","NA","6","NA","0","0","NA","0","NA","6","NA","Tue Feb 20 13:55:25 2018","The main experiment item","yes","","Python Experiment.osexp","/Users/johannaschuller/Documents/Uni/Master/Erstes_Semester/Python/Pruefungsleistung","no","mono","no","18","no","black","no","Ok","NA","no","Male","768","psycho","/Users/johannaschuller/Documents/Uni/Master/Erstes_Semester/Python/Pruefungsleistung/Data/subject-4.csv","psycho","Interactive Ising","3.0.7","0","z","NA","NA","NA","NA","z","NA","547.798156738","NA","NA","NA","NA","58382.7259541","NA","NA","NA","2","legacy","Frau","1024","2","48000","-16","experiment","4","even","99136.3480091","99065.9749508","85820.8360672","85820.4760551","NA","NA","4936.06495857","85819.6041584","NA","98319.54813","NA","NA","NA","NA","NA","NA","NA","99686.314106","NA","NA","NA","99136.1479759","NA","5010.39099693","NA","NA","NA","NA","98307.101965","NA","Tutorial: Gaze cuing","0","0","0","yes","1024"
"undefined","undefined","undefined","undefined","white","no","1","rechts","links","psycho","psycho","psycho","0","uniform","NA","NA","z","7","7","0","0","NA","NA","0","0","NA","7","NA","NA","NA","NA","NA","NA","NA","7","NA","0","NA","7","NA","0","0","NA","0","NA","7","NA","Tue Feb 20 13:55:25 2018","The main experiment item","yes","","Python Experiment.osexp","/Users/johannaschuller/Documents/Uni/Master/Erstes_Semester/Python/Pruefungsleistung","no","mono","no","18","no","black","no","Ok","NA","no","Male","768","psycho","/Users/johannaschuller/Documents/Uni/Master/Erstes_Semester/Python/Pruefungsleistung/Data/subject-4.csv","psycho","Interactive Ising","3.0.7","0","z","NA","NA","NA","NA","z","NA","561.982870102","NA","NA","NA","NA","58382.7259541","NA","NA","NA","2","legacy","Frau","1024","2","48000","-16","experiment","4","even","100670.042992","100599.902153","85820.8360672","85820.4760551","NA","NA","4936.06495857","85819.6041584","NA","99853.4970284","NA","NA","NA","NA","NA","NA","NA","101236.530066","NA","NA","NA","100669.845104","NA","5010.39099693","NA","NA","NA","NA","99846.3129997","NA","Tutorial: Gaze cuing","0","0","0","yes","1024"
"undefined","undefined","undefined","undefined","white","no","0","links","links","psycho","psycho","psycho","0","uniform","NA","NA","m","8","8","0","0","NA","NA","0","0","NA","8","NA","NA","NA","NA","NA","NA","NA","8","NA","0","NA","8","NA","0","0","NA","0","NA","8","NA","Tue Feb 20 13:55:25 2018","The main experiment item","yes","","Python Experiment.osexp","/Users/johannaschuller/Documents/Uni/Master/Erstes_Semester/Python/Pruefungsleistung","no","mono","no","18","no","black","no","Ok","NA","no","Male","768","psycho","/Users/johannaschuller/Documents/Uni/Master/Erstes_Semester/Python/Pruefungsleistung/Data/subject-4.csv","psycho","Interactive Ising","3.0.7","0","m","NA","NA","NA","NA","z","NA","605.501174927","NA","NA","NA","NA","58382.7259541","NA","NA","NA","2","legacy","Mann","1024","2","48000","-16","experiment","4","even","102236.557007","102149.397135","85820.8360672","85820.4760551","NA","NA","4936.06495857","85819.6041584","NA","101403.100014","NA","NA","NA","NA","NA","NA","NA","102844.691992","NA","NA","NA","102236.351013","NA","5010.39099693","NA","NA","NA","NA","101388.601065","NA","Tutorial: Gaze cuing","0","0","0","yes","1024"
"undefined","undefined","undefined","undefined","white","no","1","rechts","links","psycho","psycho","psycho","0","uniform","NA","NA","z","9","9","0","0","NA","NA","0","0","NA","9","NA","NA","NA","NA","NA","NA","NA","9","NA","0","NA","9","NA","0","0","NA","0","NA","9","NA","Tue Feb 20 13:55:25 2018","The main experiment item","yes","","Python Experiment.osexp","/Users/johannaschuller/Documents/Uni/Master/Erstes_Semester/Python/Pruefungsleistung","no","mono","no","18","no","black","no","Ok","NA","no","Male","768","psycho","/Users/johannaschuller/Documents/Uni/Master/Erstes_Semester/Python/Pruefungsleistung/Data/subject-4.csv","psycho","Interactive Ising","3.0.7","0","z","NA","NA","NA","NA","z","NA","640.2759552","NA","NA","NA","NA","58382.7259541","NA","NA","NA","2","legacy","Frau","1024","2","48000","-16","experiment","4","even","103819.724083","103749.181032","85820.8360672","85820.4760551","NA","NA","4936.06495857","85819.6041584","NA","103002.76804","NA","NA","NA","NA","NA","NA","NA","104462.141991","NA","NA","NA","103819.525957","NA","5010.39099693","NA","NA","NA","NA","102981.127977","NA","Tutorial: Gaze cuing","0","0","0","yes","1024"
"undefined","undefined","undefined","undefined","white","no","0","links","links","psycho","psycho","psycho","0","uniform","NA","NA","m","10","10","0","0","NA","NA","0","0","NA","10","NA","NA","NA","NA","NA","NA","NA","10","NA","0","NA","10","NA","0","0","NA","0","NA","10","NA","Tue Feb 20 13:55:25 2018","The main experiment item","yes","","Python Experiment.osexp","/Users/johannaschuller/Documents/Uni/Master/Erstes_Semester/Python/Pruefungsleistung","no","mono","no","18","no","black","no","Ok","NA","no","Male","768","psycho","/Users/johannaschuller/Documents/Uni/Master/Erstes_Semester/Python/Pruefungsleistung/Data/subject-4.csv","psycho","Interactive Ising","3.0.7","0","m","NA","NA","NA","NA","z","NA","311.972856522","NA","NA","NA","NA","58382.7259541","NA","NA","NA","2","legacy","Mann","1024","2","48000","-16","experiment","4","even","105453.907013","105365.818024","85820.8360672","85820.4760551","NA","NA","4936.06495857","85819.6041584","NA","104620.510101","NA","NA","NA","NA","NA","NA","NA","105768.018007","NA","NA","NA","105453.70698","NA","5010.39099693","NA","NA","NA","NA","104609.193087","NA","Tutorial: Gaze cuing","0","0","0","yes","1024"
"undefined","undefined","undefined","undefined","white","no","0","links","rechts","psycho","psycho","psycho","0","uniform","NA","NA","z","11","11","0","0","NA","NA","0","0","NA","11","NA","NA","NA","NA","NA","NA","NA","11","NA","0","NA","11","NA","0","0","NA","0","NA","11","NA","Tue Feb 20 13:55:25 2018","The main experiment item","yes","","Python Experiment.osexp","/Users/johannaschuller/Documents/Uni/Master/Erstes_Semester/Python/Pruefungsleistung","no","mono","no","18","no","black","no","Ok","NA","no","Male","768","psycho","/Users/johannaschuller/Documents/Uni/Master/Erstes_Semester/Python/Pruefungsleistung/Data/subject-4.csv","psycho","Interactive Ising","3.0.7","0","m","NA","NA","NA","NA","z","NA","395.02286911","NA","NA","NA","NA","58382.7259541","NA","NA","NA","2","legacy","Frau","1024","2","48000","-16","experiment","4","even","106753.86405","106682.945013","85820.8360672","85820.4760551","NA","NA","4936.06495857","85819.6041584","NA","105936.548948","NA","NA","NA","NA","NA","NA","NA","107151.11804","NA","NA","NA","106753.663063","NA","5010.39099693","NA","NA","NA","NA","105927.785158","NA","Tutorial: Gaze cuing","0","0","0","yes","1024"
"undefined","undefined","undefined","undefined","white","no","1","rechts","links","psycho","psycho","psycho","0","uniform","NA","NA","z","12","12","0","0","NA","NA","0","0","NA","12","NA","NA","NA","NA","NA","NA","NA","12","NA","0","NA","12","NA","0","0","NA","0","NA","12","NA","Tue Feb 20 13:55:25 2018","The main experiment item","yes","","Python Experiment.osexp","/Users/johannaschuller/Documents/Uni/Master/Erstes_Semester/Python/Pruefungsleistung","no","mono","no","18","no","black","no","Ok","NA","no","Male","768","psycho","/Users/johannaschuller/Documents/Uni/Master/Erstes_Semester/Python/Pruefungsleistung/Data/subject-4.csv","psycho","Interactive Ising","3.0.7","0","z","NA","NA","NA","NA","z","NA","761.234998703","NA","NA","NA","NA","58382.7259541","NA","NA","NA","2","legacy","Frau","1024","2","48000","-16","experiment","4","even","108120.650053","108049.773932","85820.8360672","85820.4760551","NA","NA","4936.06495857","85819.6041584","NA","107303.434134","NA","NA","NA","NA","NA","NA","NA","108884.135008","NA","NA","NA","108120.452166","NA","5010.39099693","NA","NA","NA","NA","107298.05994","NA","Tutorial: Gaze cuing","0","0","0","yes","1024"
"undefined","undefined","undefined","undefined","white","no","0","links","rechts","psycho","psycho","psycho","0","uniform","NA","NA","m","13","13","0","0","NA","NA","0","0","NA","13","NA","NA","NA","NA","NA","NA","NA","13","NA","0","NA","13","NA","0","0","NA","0","NA","13","NA","Tue Feb 20 13:55:25 2018","The main experiment item","yes","","Python Experiment.osexp","/Users/johannaschuller/Documents/Uni/Master/Erstes_Semester/Python/Pruefungsleistung","no","mono","no","18","no","black","no","Ok","NA","no","Male","768","psycho","/Users/johannaschuller/Documents/Uni/Master/Erstes_Semester/Python/Pruefungsleistung/Data/subject-4.csv","psycho","Interactive Ising","3.0.7","0","m","NA","NA","NA","NA","z","NA","405.149936676","NA","NA","NA","NA","58382.7259541","NA","NA","NA","2","legacy","Mann","1024","2","48000","-16","experiment","4","even","109870.568991","109800.028086","85820.8360672","85820.4760551","NA","NA","4936.06495857","85819.6041584","NA","109053.600073","NA","NA","NA","NA","NA","NA","NA","110277.956009","NA","NA","NA","109870.36705","NA","5010.39099693","NA","NA","NA","NA","109042.443991","NA","Tutorial: Gaze cuing","0","0","0","yes","1024"
"undefined","undefined","undefined","undefined","white","no","0","links","links","psycho","psycho","psycho","0","uniform","NA","NA","z","14","14","0","0","NA","NA","0","0","NA","14","NA","NA","NA","NA","NA","NA","NA","14","NA","0","NA","14","NA","0","0","NA","0","NA","14","NA","Tue Feb 20 13:55:25 2018","The main experiment item","yes","","Python Experiment.osexp","/Users/johannaschuller/Documents/Uni/Master/Erstes_Semester/Python/Pruefungsleistung","no","mono","no","18","no","black","no","Ok","NA","no","Male","768","psycho","/Users/johannaschuller/Documents/Uni/Master/Erstes_Semester/Python/Pruefungsleistung/Data/subject-4.csv","psycho","Interactive Ising","3.0.7","0","z","NA","NA","NA","NA","z","NA","415.250062943","NA","NA","NA","NA","58382.7259541","NA","NA","NA","2","legacy","Frau","1024","2","48000","-16","experiment","4","even","111254.570961","111184.181929","85820.8360672","85820.4760551","NA","NA","4936.06495857","85819.6041584","NA","110437.731028","NA","NA","NA","NA","NA","NA","NA","111671.993971","NA","NA","NA","111254.37212","NA","5010.39099693","NA","NA","NA","NA","110430.007935","NA","Tutorial: Gaze cuing","0","0","0","yes","1024"
"undefined","undefined","undefined","undefined","white","no","1","rechts","links","psycho","psycho","psycho","0","uniform","NA","NA","m","15","15","0","0","NA","NA","0","0","NA","15","NA","NA","NA","NA","NA","NA","NA","15","NA","0","NA","15","NA","0","0","NA","0","NA","15","NA","Tue Feb 20 13:55:25 2018","The main experiment item","yes","","Python Experiment.osexp","/Users/johannaschuller/Documents/Uni/Master/Erstes_Semester/Python/Pruefungsleistung","no","mono","no","18","no","black","no","Ok","NA","no","Male","768","psycho","/Users/johannaschuller/Documents/Uni/Master/Erstes_Semester/Python/Pruefungsleistung/Data/subject-4.csv","psycho","Interactive Ising","3.0.7","0","m","NA","NA","NA","NA","z","NA","552.233934402","NA","NA","NA","NA","58382.7259541","NA","NA","NA","2","legacy","Mann","1024","2","48000","-16","experiment","4","even","112671.373129","112600.652933","85820.8360672","85820.4760551","NA","NA","4936.06495857","85819.6041584","NA","111854.280949","NA","NA","NA","NA","NA","NA","NA","113225.877047","NA","NA","NA","112671.174049","NA","5010.39099693","NA","NA","NA","NA","111840.474129","NA","Tutorial: Gaze cuing","0","0","0","yes","1024"
"undefined","undefined","undefined","undefined","white","no","0","links","rechts","psycho","psycho","psycho","0","uniform","NA","NA","m","16","16","0","0","NA","NA","0","0","NA","16","NA","NA","NA","NA","NA","NA","NA","16","NA","0","NA","16","NA","0","0","NA","0","NA","16","NA","Tue Feb 20 13:55:25 2018","The main experiment item","yes","","Python Experiment.osexp","/Users/johannaschuller/Documents/Uni/Master/Erstes_Semester/Python/Pruefungsleistung","no","mono","no","18","no","black","no","Ok","NA","no","Male","768","psycho","/Users/johannaschuller/Documents/Uni/Master/Erstes_Semester/Python/Pruefungsleistung/Data/subject-4.csv","psycho","Interactive Ising","3.0.7","0","m","NA","NA","NA","NA","z","NA","480.749130249","NA","NA","NA","NA","58382.7259541","NA","NA","NA","2","legacy","Mann","1024","2","48000","-16","experiment","4","even","114220.777035","114151.1271","85820.8360672","85820.4760551","NA","NA","4936.06495857","85819.6041584","NA","113404.642105","NA","NA","NA","NA","NA","NA","NA","114703.802109","NA","NA","NA","114220.577002","NA","5010.39099693","NA","NA","NA","NA","113389.019966","NA","Tutorial: Gaze cuing","0","0","0","yes","1024"
"undefined","undefined","undefined","undefined","white","no","0","links","rechts","psycho","psycho","psycho","0","uniform","NA","NA","m","17","17","0","0","NA","NA","0","0","NA","17","NA","NA","NA","NA","NA","NA","NA","17","NA","0","NA","17","NA","0","0","NA","0","NA","17","NA","Tue Feb 20 13:55:25 2018","The main experiment item","yes","","Python Experiment.osexp","/Users/johannaschuller/Documents/Uni/Master/Erstes_Semester/Python/Pruefungsleistung","no","mono","no","18","no","black","no","Ok","NA","no","Male","768","psycho","/Users/johannaschuller/Documents/Uni/Master/Erstes_Semester/Python/Pruefungsleistung/Data/subject-4.csv","psycho","Interactive Ising","3.0.7","0","m","NA","NA","NA","NA","z","NA","352.624177933","NA","NA","NA","NA","58382.7259541","NA","NA","NA","2","legacy","Mann","1024","2","48000","-16","experiment","4","even","115688.013077","115617.346048","85820.8360672","85820.4760551","NA","NA","4936.06495857","85819.6041584","NA","114870.890141","NA","NA","NA","NA","NA","NA","NA","116042.766094","NA","NA","NA","115687.81209","NA","5010.39099693","NA","NA","NA","NA","114865.746021","NA","Tutorial: Gaze cuing","0","0","0","yes","1024"
"undefined","undefined","undefined","undefined","white","no","1","rechts","links","psycho","psycho","psycho","0","uniform","NA","NA","z","18","18","0","0","NA","NA","0","0","NA","18","NA","NA","NA","NA","NA","NA","NA","18","NA","0","NA","18","NA","0","0","NA","0","NA","18","NA","Tue Feb 20 13:55:25 2018","The main experiment item","yes","","Python Experiment.osexp","/Users/johannaschuller/Documents/Uni/Master/Erstes_Semester/Python/Pruefungsleistung","no","mono","no","18","no","black","no","Ok","NA","no","Male","768","psycho","/Users/johannaschuller/Documents/Uni/Master/Erstes_Semester/Python/Pruefungsleistung/Data/subject-4.csv","psycho","Interactive Ising","3.0.7","0","z","NA","NA","NA","NA","z","NA","499.960184097","NA","NA","NA","NA","58382.7259541","NA","NA","NA","2","legacy","Frau","1024","2","48000","-16","experiment","4","even","117037.698984","116967.748165","85820.8360672","85820.4760551","NA","NA","4936.06495857","85819.6041584","NA","116221.394062","NA","NA","NA","NA","NA","NA","NA","117539.828062","NA","NA","NA","117037.500143","NA","5010.39099693","NA","NA","NA","NA","116202.945948","NA","Tutorial: Gaze cuing","0","0","0","yes","1024"
"undefined","undefined","undefined","undefined","white","no","0","rechts","rechts","psycho","psycho","psycho","0","uniform","NA","NA","z","19","19","0","0","NA","NA","0","0","NA","19","NA","NA","NA","NA","NA","NA","NA","19","NA","0","NA","19","NA","0","0","NA","0","NA","19","NA","Tue Feb 20 13:55:25 2018","The main experiment item","yes","","Python Experiment.osexp","/Users/johannaschuller/Documents/Uni/Master/Erstes_Semester/Python/Pruefungsleistung","no","mono","no","18","no","black","no","Ok","NA","no","Male","768","psycho","/Users/johannaschuller/Documents/Uni/Master/Erstes_Semester/Python/Pruefungsleistung/Data/subject-4.csv","psycho","Interactive Ising","3.0.7","0","z","NA","NA","NA","NA","z","NA","576.043844223","NA","NA","NA","NA","58382.7259541","NA","NA","NA","2","legacy","Frau","1024","2","48000","-16","experiment","4","even","118538.356066","118467.471123","85820.8360672","85820.4760551","NA","NA","4936.06495857","85819.6041584","NA","117721.04001","NA","NA","NA","NA","NA","NA","NA","119116.749048","NA","NA","NA","118538.156986","NA","5010.39099693","NA","NA","NA","NA","117700.648069","NA","Tutorial: Gaze cuing","0","0","0","yes","1024"
"undefined","undefined","undefined","undefined","white","no","0","links","links","psycho","psycho","psycho","0","uniform","NA","NA","z","20","20","0","0","NA","NA","0","0","NA","20","NA","NA","NA","NA","NA","NA","NA","20","NA","0","NA","20","NA","0","0","NA","0","NA","20","NA","Tue Feb 20 13:55:25 2018","The main experiment item","yes","","Python Experiment.osexp","/Users/johannaschuller/Documents/Uni/Master/Erstes_Semester/Python/Pruefungsleistung","no","mono","no","18","no","black","no","Ok","NA","no","Male","768","psycho","/Users/johannaschuller/Documents/Uni/Master/Erstes_Semester/Python/Pruefungsleistung/Data/subject-4.csv","psycho","Interactive Ising","3.0.7","0","z","NA","NA","NA","NA","z","NA","417.114973068","NA","NA","NA","NA","58382.7259541","NA","NA","NA","2","legacy","Frau","1024","2","48000","-16","experiment","4","even","120088.247061","120017.729998","85820.8360672","85820.4760551","NA","NA","4936.06495857","85819.6041584","NA","119271.686077","NA","NA","NA","NA","NA","NA","NA","120507.539034","NA","NA","NA","120088.046074","NA","5010.39099693","NA","NA","NA","NA","119264.986992","NA","Tutorial: Gaze cuing","0","0","0","yes","1024"
"undefined","undefined","undefined","undefined","white","no","0","rechts","rechts","psycho","psycho","psycho","0","uniform","NA","NA","m","21","21","0","0","NA","NA","0","0","NA","21","NA","NA","NA","NA","NA","NA","NA","21","NA","0","NA","21","NA","0","0","NA","0","NA","21","NA","Tue Feb 20 13:55:25 2018","The main experiment item","yes","","Python Experiment.osexp","/Users/johannaschuller/Documents/Uni/Master/Erstes_Semester/Python/Pruefungsleistung","no","mono","no","18","no","black","no","Ok","NA","no","Male","768","psycho","/Users/johannaschuller/Documents/Uni/Master/Erstes_Semester/Python/Pruefungsleistung/Data/subject-4.csv","psycho","Interactive Ising","3.0.7","0","m","NA","NA","NA","NA","z","NA","519.222974777","NA","NA","NA","NA","58382.7259541","NA","NA","NA","2","legacy","Mann","1024","2","48000","-16","experiment","4","even","121472.264051","121402.131081","85820.8360672","85820.4760551","NA","NA","4936.06495857","85819.6041584","NA","120655.806065","NA","NA","NA","NA","NA","NA","NA","121993.936062","NA","NA","NA","121472.066164","NA","5010.39099693","NA","NA","NA","NA","120648.24295","NA","Tutorial: Gaze cuing","0","0","0","yes","1024"
"undefined","undefined","undefined","undefined","white","no","1","rechts","links","psycho","psycho","psycho","0","uniform","NA","NA","m","22","22","0","0","NA","NA","0","0","NA","22","NA","NA","NA","NA","NA","NA","NA","22","NA","0","NA","22","NA","0","0","NA","0","NA","22","NA","Tue Feb 20 13:55:25 2018","The main experiment item","yes","","Python Experiment.osexp","/Users/johannaschuller/Documents/Uni/Master/Erstes_Semester/Python/Pruefungsleistung","no","mono","no","18","no","black","no","Ok","NA","no","Male","768","psycho","/Users/johannaschuller/Documents/Uni/Master/Erstes_Semester/Python/Pruefungsleistung/Data/subject-4.csv","psycho","Interactive Ising","3.0.7","0","m","NA","NA","NA","NA","z","NA","498.167991638","NA","NA","NA","NA","58382.7259541","NA","NA","NA","2","legacy","Mann","1024","2","48000","-16","experiment","4","even","122972.315073","122901.405096","85820.8360672","85820.4760551","NA","NA","4936.06495857","85819.6041584","NA","122155.055046","NA","NA","NA","NA","NA","NA","NA","123472.654104","NA","NA","NA","122972.115993","NA","5010.39099693","NA","NA","NA","NA","122147.170067","NA","Tutorial: Gaze cuing","0","0","0","yes","1024"
"undefined","undefined","undefined","undefined","white","no","0","links","links","psycho","psycho","psycho","0","uniform","NA","NA","m","23","23","0","0","NA","NA","0","0","NA","23","NA","NA","NA","NA","NA","NA","NA","23","NA","0","NA","23","NA","0","0","NA","0","NA","23","NA","Tue Feb 20 13:55:25 2018","The main experiment item","yes","","Python Experiment.osexp","/Users/johannaschuller/Documents/Uni/Master/Erstes_Semester/Python/Pruefungsleistung","no","mono","no","18","no","black","no","Ok","NA","no","Male","768","psycho","/Users/johannaschuller/Documents/Uni/Master/Erstes_Semester/Python/Pruefungsleistung/Data/subject-4.csv","psycho","Interactive Ising","3.0.7","0","m","NA","NA","NA","NA","z","NA","553.264856339","NA","NA","NA","NA","58382.7259541","NA","NA","NA","2","legacy","Mann","1024","2","48000","-16","experiment","4","even","124455.240011","124384.51314","85820.8360672","85820.4760551","NA","NA","4936.06495857","85819.6041584","NA","123638.469934","NA","NA","NA","NA","NA","NA","NA","125010.739088","NA","NA","NA","124455.042124","NA","5010.39099693","NA","NA","NA","NA","123619.609118","NA","Tutorial: Gaze cuing","0","0","0","yes","1024"
"undefined","undefined","undefined","undefined","white","no","0","rechts","rechts","psycho","psycho","psycho","0","uniform","NA","NA","z","24","24","0","0","NA","NA","0","0","NA","24","NA","NA","NA","NA","NA","NA","NA","24","NA","0","NA","24","NA","0","0","NA","0","NA","24","NA","Tue Feb 20 13:55:25 2018","The main experiment item","yes","","Python Experiment.osexp","/Users/johannaschuller/Documents/Uni/Master/Erstes_Semester/Python/Pruefungsleistung","no","mono","no","18","no","black","no","Ok","NA","no","Male","768","psycho","/Users/johannaschuller/Documents/Uni/Master/Erstes_Semester/Python/Pruefungsleistung/Data/subject-4.csv","psycho","Interactive Ising","3.0.7","0","z","NA","NA","NA","NA","z","NA","532.128095627","NA","NA","NA","NA","58382.7259541","NA","NA","NA","2","legacy","Frau","1024","2","48000","-16","experiment","4","even","126006.214142","125935.173035","85820.8360672","85820.4760551","NA","NA","4936.06495857","85819.6041584","NA","125188.802004","NA","NA","NA","NA","NA","NA","NA","126540.895939","NA","NA","NA","126005.922079","NA","5010.39099693","NA","NA","NA","NA","125174.419165","NA","Tutorial: Gaze cuing","0","0","0","yes","1024"
"undefined","undefined","undefined","undefined","white","no","1","rechts","links","psycho","psycho","psycho","0","uniform","NA","NA","m","25","25","0","0","NA","NA","0","0","NA","25","NA","NA","NA","NA","NA","NA","NA","25","NA","0","NA","25","NA","0","0","NA","0","NA","25","NA","Tue Feb 20 13:55:25 2018","The main experiment item","yes","","Python Experiment.osexp","/Users/johannaschuller/Documents/Uni/Master/Erstes_Semester/Python/Pruefungsleistung","no","mono","no","18","no","black","no","Ok","NA","no","Male","768","psycho","/Users/johannaschuller/Documents/Uni/Master/Erstes_Semester/Python/Pruefungsleistung/Data/subject-4.csv","psycho","Interactive Ising","3.0.7","0","m","NA","NA","NA","NA","z","NA","514.182090759","NA","NA","NA","NA","58382.7259541","NA","NA","NA","2","legacy","Mann","1024","2","48000","-16","experiment","4","even","127539.173126","127468.461037","85820.8360672","85820.4760551","NA","NA","4936.06495857","85819.6041584","NA","126722.033978","NA","NA","NA","NA","NA","NA","NA","128055.648088","NA","NA","NA","127538.977146","NA","5010.39099693","NA","NA","NA","NA","126702.9531","NA","Tutorial: Gaze cuing","0","0","0","yes","1024"
"undefined","undefined","undefined","undefined","white","no","0","rechts","rechts","psycho","psycho","psycho","0","uniform","NA","NA","z","26","26","0","0","NA","NA","0","0","NA","26","NA","NA","NA","NA","NA","NA","NA","26","NA","0","NA","26","NA","0","0","NA","0","NA","26","NA","Tue Feb 20 13:55:25 2018","The main experiment item","yes","","Python Experiment.osexp","/Users/johannaschuller/Documents/Uni/Master/Erstes_Semester/Python/Pruefungsleistung","no","mono","no","18","no","black","no","Ok","NA","no","Male","768","psycho","/Users/johannaschuller/Documents/Uni/Master/Erstes_Semester/Python/Pruefungsleistung/Data/subject-4.csv","psycho","Interactive Ising","3.0.7","0","z","NA","NA","NA","NA","z","NA","439.872980118","NA","NA","NA","NA","58382.7259541","NA","NA","NA","2","legacy","Frau","1024","2","48000","-16","experiment","4","even","129039.407015","128968.477011","85820.8360672","85820.4760551","NA","NA","4936.06495857","85819.6041584","NA","128222.114086","NA","NA","NA","NA","NA","NA","NA","129481.404066","NA","NA","NA","129039.206982","NA","5010.39099693","NA","NA","NA","NA","128210.123062","NA","Tutorial: Gaze cuing","0","0","0","yes","1024"
"undefined","undefined","undefined","undefined","white","no","0","links","rechts","psycho","psycho","psycho","0","uniform","NA","NA","z","27","27","0","0","NA","NA","0","0","NA","27","NA","NA","NA","NA","NA","NA","NA","27","NA","0","NA","27","NA","0","0","NA","0","NA","27","NA","Tue Feb 20 13:55:25 2018","The main experiment item","yes","","Python Experiment.osexp","/Users/johannaschuller/Documents/Uni/Master/Erstes_Semester/Python/Pruefungsleistung","no","mono","no","18","no","black","no","Ok","NA","no","Male","768","psycho","/Users/johannaschuller/Documents/Uni/Master/Erstes_Semester/Python/Pruefungsleistung/Data/subject-4.csv","psycho","Interactive Ising","3.0.7","0","z","NA","NA","NA","NA","z","NA","435.859918594","NA","NA","NA","NA","58382.7259541","NA","NA","NA","2","legacy","Frau","1024","2","48000","-16","experiment","4","even","130489.328146","130402.613163","85820.8360672","85820.4760551","NA","NA","4936.06495857","85819.6041584","NA","129656.183004","NA","NA","NA","NA","NA","NA","NA","130927.596092","NA","NA","NA","130489.13002","NA","5010.39099693","NA","NA","NA","NA","129633.677006","NA","Tutorial: Gaze cuing","0","0","0","yes","1024"
"undefined","undefined","undefined","undefined","white","no","0","links","links","psycho","psycho","psycho","0","uniform","NA","NA","z","28","28","0","0","NA","NA","0","0","NA","28","NA","NA","NA","NA","NA","NA","NA","28","NA","0","NA","28","NA","0","0","NA","0","NA","28","NA","Tue Feb 20 13:55:25 2018","The main experiment item","yes","","Python Experiment.osexp","/Users/johannaschuller/Documents/Uni/Master/Erstes_Semester/Python/Pruefungsleistung","no","mono","no","18","no","black","no","Ok","NA","no","Male","768","psycho","/Users/johannaschuller/Documents/Uni/Master/Erstes_Semester/Python/Pruefungsleistung/Data/subject-4.csv","psycho","Interactive Ising","3.0.7","0","z","NA","NA","NA","NA","z","NA","426.326990128","NA","NA","NA","NA","58382.7259541","NA","NA","NA","2","legacy","Frau","1024","2","48000","-16","experiment","4","even","131905.861139","131835.575104","85820.8360672","85820.4760551","NA","NA","4936.06495857","85819.6041584","NA","131089.200974","NA","NA","NA","NA","NA","NA","NA","132334.547997","NA","NA","NA","131905.663013","NA","5010.39099693","NA","NA","NA","NA","131078.273058","NA","Tutorial: Gaze cuing","0","0","0","yes","1024"
"undefined","undefined","undefined","undefined","white","no","0","links","links","psycho","psycho","psycho","0","uniform","NA","NA","z","29","29","0","0","NA","NA","0","0","NA","29","NA","NA","NA","NA","NA","NA","NA","29","NA","0","NA","29","NA","0","0","NA","0","NA","29","NA","Tue Feb 20 13:55:25 2018","The main experiment item","yes","","Python Experiment.osexp","/Users/johannaschuller/Documents/Uni/Master/Erstes_Semester/Python/Pruefungsleistung","no","mono","no","18","no","black","no","Ok","NA","no","Male","768","psycho","/Users/johannaschuller/Documents/Uni/Master/Erstes_Semester/Python/Pruefungsleistung/Data/subject-4.csv","psycho","Interactive Ising","3.0.7","0","z","NA","NA","NA","NA","z","NA","400.137901306","NA","NA","NA","NA","58382.7259541","NA","NA","NA","2","legacy","Frau","1024","2","48000","-16","experiment","4","even","133323.992014","133252.221107","85820.8360672","85820.4760551","NA","NA","4936.06495857","85819.6041584","NA","132505.875111","NA","NA","NA","NA","NA","NA","NA","133726.28212","NA","NA","NA","133323.719025","NA","5010.39099693","NA","NA","NA","NA","132488.021135","NA","Tutorial: Gaze cuing","0","0","0","yes","1024"
"undefined","undefined","undefined","undefined","white","no","0","rechts","rechts","psycho","psycho","psycho","0","uniform","NA","NA","m","30","30","0","0","NA","NA","0","0","NA","30","NA","NA","NA","NA","NA","NA","NA","30","NA","0","NA","30","NA","0","0","NA","0","NA","30","NA","Tue Feb 20 13:55:25 2018","The main experiment item","yes","","Python Experiment.osexp","/Users/johannaschuller/Documents/Uni/Master/Erstes_Semester/Python/Pruefungsleistung","no","mono","no","18","no","black","no","Ok","NA","no","Male","768","psycho","/Users/johannaschuller/Documents/Uni/Master/Erstes_Semester/Python/Pruefungsleistung/Data/subject-4.csv","psycho","Interactive Ising","3.0.7","0","m","NA","NA","NA","NA","z","NA","365.113019943","NA","NA","NA","NA","58382.7259541","NA","NA","NA","2","legacy","Mann","1024","2","48000","-16","experiment","4","even","134706.02107","134635.121107","85820.8360672","85820.4760551","NA","NA","4936.06495857","85819.6041584","NA","133888.985157","NA","NA","NA","NA","NA","NA","NA","135073.493958","NA","NA","NA","134705.821037","NA","5010.39099693","NA","NA","NA","NA","133880.417109","NA","Tutorial: Gaze cuing","0","0","0","yes","1024"
"undefined","undefined","undefined","undefined","white","no","0","links","rechts","psycho","psycho","psycho","0","uniform","NA","NA","z","31","31","0","0","NA","NA","0","0","NA","31","NA","NA","NA","NA","NA","NA","NA","31","NA","0","NA","31","NA","0","0","NA","0","NA","31","NA","Tue Feb 20 13:55:25 2018","The main experiment item","yes","","Python Experiment.osexp","/Users/johannaschuller/Documents/Uni/Master/Erstes_Semester/Python/Pruefungsleistung","no","mono","no","18","no","black","no","Ok","NA","no","Male","768","psycho","/Users/johannaschuller/Documents/Uni/Master/Erstes_Semester/Python/Pruefungsleistung/Data/subject-4.csv","psycho","Interactive Ising","3.0.7","0","z","NA","NA","NA","NA","z","NA","391.737937927","NA","NA","NA","NA","58382.7259541","NA","NA","NA","2","legacy","Frau","1024","2","48000","-16","experiment","4","even","136056.205034","135985.778093","85820.8360672","85820.4760551","NA","NA","4936.06495857","85819.6041584","NA","135239.376068","NA","NA","NA","NA","NA","NA","NA","136450.410128","NA","NA","NA","136056.004047","NA","5010.39099693","NA","NA","NA","NA","135223.047972","NA","Tutorial: Gaze cuing","0","0","0","yes","1024"
"undefined","undefined","undefined","undefined","white","no","0","links","rechts","psycho","psycho","psycho","0","uniform","NA","NA","m","32","32","1","1","NA","NA","0","0","NA","32","NA","NA","NA","NA","NA","NA","NA","32","NA","0","NA","32","NA","0","0","NA","1","NA","32","NA","Tue Feb 20 13:55:25 2018","The main experiment item","yes","","Python Experiment.osexp","/Users/johannaschuller/Documents/Uni/Master/Erstes_Semester/Python/Pruefungsleistung","no","mono","no","18","no","black","no","Ok","NA","no","Male","768","psycho","/Users/johannaschuller/Documents/Uni/Master/Erstes_Semester/Python/Pruefungsleistung/Data/subject-4.csv","psycho","Interactive Ising","3.0.7","0","m","NA","NA","NA","NA","z","NA","311.371088028","NA","NA","NA","NA","58382.7259541","NA","NA","NA","2","legacy","Mann","1024","2","48000","-16","experiment","4","even","137439.599991","137369.688034","136463.272095","136462.801933","NA","NA","4936.06495857","85819.6041584","NA","136623.25716","NA","NA","NA","NA","NA","NA","NA","137753.145933","NA","NA","NA","137439.403057","NA","5010.39099693","NA","NA","NA","NA","136610.335112","NA","Tutorial: Gaze cuing","0","0","0","yes","1024"
"undefined","undefined","undefined","undefined","white","no","0","links","rechts","psycho","psycho","psycho","0","uniform","NA","NA","z","33","33","1","1","NA","NA","0","0","NA","33","NA","NA","NA","NA","NA","NA","NA","33","NA","0","NA","33","NA","0","0","NA","1","NA","33","NA","Tue Feb 20 13:55:25 2018","The main experiment item","yes","","Python Experiment.osexp","/Users/johannaschuller/Documents/Uni/Master/Erstes_Semester/Python/Pruefungsleistung","no","mono","no","18","no","black","no","Ok","NA","no","Male","768","psycho","/Users/johannaschuller/Documents/Uni/Master/Erstes_Semester/Python/Pruefungsleistung/Data/subject-4.csv","psycho","Interactive Ising","3.0.7","0","z","NA","NA","NA","NA","z","NA","272.117137909","NA","NA","NA","NA","58382.7259541","NA","NA","NA","2","legacy","Frau","1024","2","48000","-16","experiment","4","even","138739.701986","138669.980049","136463.272095","136462.801933","NA","NA","4936.06495857","85819.6041584","NA","137923.710108","NA","NA","NA","NA","NA","NA","NA","139014.105082","NA","NA","NA","138739.500999","NA","5010.39099693","NA","NA","NA","NA","137909.420013","NA","Tutorial: Gaze cuing","0","0","0","yes","1024"
"undefined","undefined","undefined","undefined","white","no","0","links","links","psycho","psycho","psycho","0","uniform","NA","NA","z","34","34","1","1","NA","NA","0","0","NA","34","NA","NA","NA","NA","NA","NA","NA","34","NA","0","NA","34","NA","0","0","NA","1","NA","34","NA","Tue Feb 20 13:55:25 2018","The main experiment item","yes","","Python Experiment.osexp","/Users/johannaschuller/Documents/Uni/Master/Erstes_Semester/Python/Pruefungsleistung","no","mono","no","18","no","black","no","Ok","NA","no","Male","768","psycho","/Users/johannaschuller/Documents/Uni/Master/Erstes_Semester/Python/Pruefungsleistung/Data/subject-4.csv","psycho","Interactive Ising","3.0.7","0","z","NA","NA","NA","NA","z","NA","404.651880264","NA","NA","NA","NA","58382.7259541","NA","NA","NA","2","legacy","Frau","1024","2","48000","-16","experiment","4","even","140007.241011","139935.621977","136463.272095","136462.801933","NA","NA","4936.06495857","85819.6041584","NA","139189.908981","NA","NA","NA","NA","NA","NA","NA","140414.080143","NA","NA","NA","140007.043123","NA","5010.39099693","NA","NA","NA","NA","139172.584057","NA","Tutorial: Gaze cuing","0","0","0","yes","1024"
"undefined","undefined","undefined","undefined","white","no","0","links","links","psycho","psycho","psycho","0","uniform","NA","NA","m","35","35","1","1","NA","NA","0","0","NA","35","NA","NA","NA","NA","NA","NA","NA","35","NA","0","NA","35","NA","0","0","NA","1","NA","35","NA","Tue Feb 20 13:55:25 2018","The main experiment item","yes","","Python Experiment.osexp","/Users/johannaschuller/Documents/Uni/Master/Erstes_Semester/Python/Pruefungsleistung","no","mono","no","18","no","black","no","Ok","NA","no","Male","768","psycho","/Users/johannaschuller/Documents/Uni/Master/Erstes_Semester/Python/Pruefungsleistung/Data/subject-4.csv","psycho","Interactive Ising","3.0.7","0","m","NA","NA","NA","NA","z","NA","397.75800705","NA","NA","NA","NA","58382.7259541","NA","NA","NA","2","legacy","Mann","1024","2","48000","-16","experiment","4","even","141407.529116","141336.54213","136463.272095","136462.801933","NA","NA","4936.06495857","85819.6041584","NA","140590.117931","NA","NA","NA","NA","NA","NA","NA","141808.156967","NA","NA","NA","141407.330036","NA","5010.39099693","NA","NA","NA","NA","140568.212032","NA","Tutorial: Gaze cuing","0","0","0","yes","1024"
"undefined","undefined","undefined","undefined","white","no","0","links","rechts","psycho","psycho","psycho","0","uniform","NA","NA","z","36","36","1","1","NA","NA","0","0","NA","36","NA","NA","NA","NA","NA","NA","NA","36","NA","0","NA","36","NA","0","0","NA","1","NA","36","NA","Tue Feb 20 13:55:25 2018","The main experiment item","yes","","Python Experiment.osexp","/Users/johannaschuller/Documents/Uni/Master/Erstes_Semester/Python/Pruefungsleistung","no","mono","no","18","no","black","no","Ok","NA","no","Male","768","psycho","/Users/johannaschuller/Documents/Uni/Master/Erstes_Semester/Python/Pruefungsleistung/Data/subject-4.csv","psycho","Interactive Ising","3.0.7","0","z","NA","NA","NA","NA","z","NA","357.720136642","NA","NA","NA","NA","58382.7259541","NA","NA","NA","2","legacy","Frau","1024","2","48000","-16","experiment","4","even","142807.044983","142720.401049","136463.272095","136462.801933","NA","NA","4936.06495857","85819.6041584","NA","141974.027157","NA","NA","NA","NA","NA","NA","NA","143167.155981","NA","NA","NA","142806.84495","NA","5010.39099693","NA","NA","NA","NA","141963.196039","NA","Tutorial: Gaze cuing","0","0","0","yes","1024"
"undefined","undefined","undefined","undefined","white","no","0","rechts","rechts","psycho","psycho","psycho","0","uniform","NA","NA","m","37","37","1","1","NA","NA","0","0","NA","37","NA","NA","NA","NA","NA","NA","NA","37","NA","0","NA","37","NA","0","0","NA","1","NA","37","NA","Tue Feb 20 13:55:25 2018","The main experiment item","yes","","Python Experiment.osexp","/Users/johannaschuller/Documents/Uni/Master/Erstes_Semester/Python/Pruefungsleistung","no","mono","no","18","no","black","no","Ok","NA","no","Male","768","psycho","/Users/johannaschuller/Documents/Uni/Master/Erstes_Semester/Python/Pruefungsleistung/Data/subject-4.csv","psycho","Interactive Ising","3.0.7","0","m","NA","NA","NA","NA","z","NA","382.985115051","NA","NA","NA","NA","58382.7259541","NA","NA","NA","2","legacy","Mann","1024","2","48000","-16","experiment","4","even","144156.784058","144086.786985","136463.272095","136462.801933","NA","NA","4936.06495857","85819.6041584","NA","143340.968132","NA","NA","NA","NA","NA","NA","NA","144541.97216","NA","NA","NA","144156.585932","NA","5010.39099693","NA","NA","NA","NA","143320.636034","NA","Tutorial: Gaze cuing","0","0","0","yes","1024"
"undefined","undefined","undefined","undefined","white","no","0","links","links","psycho","psycho","psycho","0","uniform","NA","NA","m","38","38","1","1","NA","NA","0","0","NA","38","NA","NA","NA","NA","NA","NA","NA","38","NA","0","NA","38","NA","0","0","NA","1","NA","38","NA","Tue Feb 20 13:55:25 2018","The main experiment item","yes","","Python Experiment.osexp","/Users/johannaschuller/Documents/Uni/Master/Erstes_Semester/Python/Pruefungsleistung","no","mono","no","18","no","black","no","Ok","NA","no","Male","768","psycho","/Users/johannaschuller/Documents/Uni/Master/Erstes_Semester/Python/Pruefungsleistung/Data/subject-4.csv","psycho","Interactive Ising","3.0.7","0","m","NA","NA","NA","NA","z","NA","561.880111694","NA","NA","NA","NA","58382.7259541","NA","NA","NA","2","legacy","Mann","1024","2","48000","-16","experiment","4","even","145523.83709","145453.879118","136463.272095","136462.801933","NA","NA","4936.06495857","85819.6041584","NA","144707.463026","NA","NA","NA","NA","NA","NA","NA","146087.998152","NA","NA","NA","145523.637056","NA","5010.39099693","NA","NA","NA","NA","144698.867083","NA","Tutorial: Gaze cuing","0","0","0","yes","1024"
"undefined","undefined","undefined","undefined","white","no","0","links","rechts","psycho","psycho","psycho","0","uniform","NA","NA","z","39","39","1","1","NA","NA","0","0","NA","39","NA","NA","NA","NA","NA","NA","NA","39","NA","0","NA","39","NA","0","0","NA","1","NA","39","NA","Tue Feb 20 13:55:25 2018","The main experiment item","yes","","Python Experiment.osexp","/Users/johannaschuller/Documents/Uni/Master/Erstes_Semester/Python/Pruefungsleistung","no","mono","no","18","no","black","no","Ok","NA","no","Male","768","psycho","/Users/johannaschuller/Documents/Uni/Master/Erstes_Semester/Python/Pruefungsleistung/Data/subject-4.csv","psycho","Interactive Ising","3.0.7","0","z","NA","NA","NA","NA","z","NA","399.710893631","NA","NA","NA","NA","58382.7259541","NA","NA","NA","2","legacy","Frau","1024","2","48000","-16","experiment","4","even","147074.008942","147003.268957","136463.272095","136462.801933","NA","NA","4936.06495857","85819.6041584","NA","146256.915092","NA","NA","NA","NA","NA","NA","NA","147475.973129","NA","NA","NA","147073.809147","NA","5010.39099693","NA","NA","NA","NA","146241.575956","NA","Tutorial: Gaze cuing","0","0","0","yes","1024"
"undefined","undefined","undefined","undefined","white","no","0","links","rechts","psycho","psycho","psycho","0","uniform","NA","NA","m","40","40","1","1","NA","NA","0","0","NA","40","NA","NA","NA","NA","NA","NA","NA","40","NA","0","NA","40","NA","0","0","NA","1","NA","40","NA","Tue Feb 20 13:55:25 2018","The main experiment item","yes","","Python Experiment.osexp","/Users/johannaschuller/Documents/Uni/Master/Erstes_Semester/Python/Pruefungsleistung","no","mono","no","18","no","black","no","Ok","NA","no","Male","768","psycho","/Users/johannaschuller/Documents/Uni/Master/Erstes_Semester/Python/Pruefungsleistung/Data/subject-4.csv","psycho","Interactive Ising","3.0.7","0","m","NA","NA","NA","NA","z","NA","388.770103455","NA","NA","NA","NA","58382.7259541","NA","NA","NA","2","legacy","Mann","1024","2","48000","-16","experiment","4","even","148457.960129","148387.154102","136463.272095","136462.801933","NA","NA","4936.06495857","85819.6041584","NA","147640.748024","NA","NA","NA","NA","NA","NA","NA","148848.871946","NA","NA","NA","148457.736969","NA","5010.39099693","NA","NA","NA","NA","147625.79298","NA","Tutorial: Gaze cuing","0","0","0","yes","1024"
"undefined","undefined","undefined","undefined","white","no","1","rechts","links","psycho","psycho","psycho","0","uniform","NA","NA","z","41","41","1","1","NA","NA","0","0","NA","41","NA","NA","NA","NA","NA","NA","NA","41","NA","0","NA","41","NA","0","0","NA","1","NA","41","NA","Tue Feb 20 13:55:25 2018","The main experiment item","yes","","Python Experiment.osexp","/Users/johannaschuller/Documents/Uni/Master/Erstes_Semester/Python/Pruefungsleistung","no","mono","no","18","no","black","no","Ok","NA","no","Male","768","psycho","/Users/johannaschuller/Documents/Uni/Master/Erstes_Semester/Python/Pruefungsleistung/Data/subject-4.csv","psycho","Interactive Ising","3.0.7","0","z","NA","NA","NA","NA","z","NA","456.723928452","NA","NA","NA","NA","58382.7259541","NA","NA","NA","2","legacy","Frau","1024","2","48000","-16","experiment","4","even","149840.950012","149770.153999","136463.272095","136462.801933","NA","NA","4936.06495857","85819.6041584","NA","149023.802996","NA","NA","NA","NA","NA","NA","NA","150300.506115","NA","NA","NA","149840.752125","NA","5010.39099693","NA","NA","NA","NA","149005.921125","NA","Tutorial: Gaze cuing","0","0","0","yes","1024"
"undefined","undefined","undefined","undefined","white","no","0","links","links","psycho","psycho","psycho","0","uniform","NA","NA","z","42","42","1","1","NA","NA","0","0","NA","42","NA","NA","NA","NA","NA","NA","NA","42","NA","0","NA","42","NA","0","0","NA","1","NA","42","NA","Tue Feb 20 13:55:25 2018","The main experiment item","yes","","Python Experiment.osexp","/Users/johannaschuller/Documents/Uni/Master/Erstes_Semester/Python/Pruefungsleistung","no","mono","no","18","no","black","no","Ok","NA","no","Male","768","psycho","/Users/johannaschuller/Documents/Uni/Master/Erstes_Semester/Python/Pruefungsleistung/Data/subject-4.csv","psycho","Interactive Ising","3.0.7","0","z","NA","NA","NA","NA","z","NA","450.093984604","NA","NA","NA","NA","58382.7259541","NA","NA","NA","2","legacy","Frau","1024","2","48000","-16","experiment","4","even","151291.558027","151220.978022","136463.272095","136462.801933","NA","NA","4936.06495857","85819.6041584","NA","150474.633932","NA","NA","NA","NA","NA","NA","NA","151743.839979","NA","NA","NA","151291.361094","NA","5010.39099693","NA","NA","NA","NA","150456.264019","NA","Tutorial: Gaze cuing","0","0","0","yes","1024"
"undefined","undefined","undefined","undefined","white","no","0","rechts","rechts","psycho","psycho","psycho","0","uniform","NA","NA","z","43","43","1","1","NA","NA","0","0","NA","43","NA","NA","NA","NA","NA","NA","NA","43","NA","0","NA","43","NA","0","0","NA","1","NA","43","NA","Tue Feb 20 13:55:25 2018","The main experiment item","yes","","Python Experiment.osexp","/Users/johannaschuller/Documents/Uni/Master/Erstes_Semester/Python/Pruefungsleistung","no","mono","no","18","no","black","no","Ok","NA","no","Male","768","psycho","/Users/johannaschuller/Documents/Uni/Master/Erstes_Semester/Python/Pruefungsleistung/Data/subject-4.csv","psycho","Interactive Ising","3.0.7","0","z","NA","NA","NA","NA","z","NA","456.978082657","NA","NA","NA","NA","58382.7259541","NA","NA","NA","2","legacy","Frau","1024","2","48000","-16","experiment","4","even","152724.570036","152654.30212","136463.272095","136462.801933","NA","NA","4936.06495857","85819.6041584","NA","151907.885075","NA","NA","NA","NA","NA","NA","NA","153183.696032","NA","NA","NA","152724.370003","NA","5010.39099693","NA","NA","NA","NA","151891.561985","NA","Tutorial: Gaze cuing","0","0","0","yes","1024"
"undefined","undefined","undefined","undefined","white","no","1","rechts","links","psycho","psycho","psycho","0","uniform","NA","NA","m","44","44","1","1","NA","NA","0","0","NA","44","NA","NA","NA","NA","NA","NA","NA","44","NA","0","NA","44","NA","0","0","NA","1","NA","44","NA","Tue Feb 20 13:55:25 2018","The main experiment item","yes","","Python Experiment.osexp","/Users/johannaschuller/Documents/Uni/Master/Erstes_Semester/Python/Pruefungsleistung","no","mono","no","18","no","black","no","Ok","NA","no","Male","768","psycho","/Users/johannaschuller/Documents/Uni/Master/Erstes_Semester/Python/Pruefungsleistung/Data/subject-4.csv","psycho","Interactive Ising","3.0.7","0","m","NA","NA","NA","NA","z","NA","477.118968964","NA","NA","NA","NA","58382.7259541","NA","NA","NA","2","legacy","Mann","1024","2","48000","-16","experiment","4","even","154158.514023","154087.428093","136463.272095","136462.801933","NA","NA","4936.06495857","85819.6041584","NA","153341.356993","NA","NA","NA","NA","NA","NA","NA","154638.127089","NA","NA","NA","154158.317089","NA","5010.39099693","NA","NA","NA","NA","153331.103086","NA","Tutorial: Gaze cuing","0","0","0","yes","1024"
"undefined","undefined","undefined","undefined","white","no","0","links","rechts","psycho","psycho","psycho","0","uniform","NA","NA","z","45","45","1","1","NA","NA","0","0","NA","45","NA","NA","NA","NA","NA","NA","NA","45","NA","0","NA","45","NA","0","0","NA","1","NA","45","NA","Tue Feb 20 13:55:25 2018","The main experiment item","yes","","Python Experiment.osexp","/Users/johannaschuller/Documents/Uni/Master/Erstes_Semester/Python/Pruefungsleistung","no","mono","no","18","no","black","no","Ok","NA","no","Male","768","psycho","/Users/johannaschuller/Documents/Uni/Master/Erstes_Semester/Python/Pruefungsleistung/Data/subject-4.csv","psycho","Interactive Ising","3.0.7","0","z","NA","NA","NA","NA","z","NA","597.471952438","NA","NA","NA","NA","58382.7259541","NA","NA","NA","2","legacy","Frau","1024","2","48000","-16","experiment","4","even","155608.165026","155537.98008","136463.272095","136462.801933","NA","NA","4936.06495857","85819.6041584","NA","154791.54706","NA","NA","NA","NA","NA","NA","NA","156207.764149","NA","NA","NA","155607.965946","NA","5010.39099693","NA","NA","NA","NA","154785.956144","NA","Tutorial: Gaze cuing","0","0","0","yes","1024"
"undefined","undefined","undefined","undefined","white","no","1","rechts","links","psycho","psycho","psycho","0","uniform","NA","NA","m","46","46","1","1","NA","NA","0","0","NA","46","NA","NA","NA","NA","NA","NA","NA","46","NA","0","NA","46","NA","0","0","NA","1","NA","46","NA","Tue Feb 20 13:55:25 2018","The main experiment item","yes","","Python Experiment.osexp","/Users/johannaschuller/Documents/Uni/Master/Erstes_Semester/Python/Pruefungsleistung","no","mono","no","18","no","black","no","Ok","NA","no","Male","768","psycho","/Users/johannaschuller/Documents/Uni/Master/Erstes_Semester/Python/Pruefungsleistung/Data/subject-4.csv","psycho","Interactive Ising","3.0.7","0","m","NA","NA","NA","NA","z","NA","434.828042984","NA","NA","NA","NA","58382.7259541","NA","NA","NA","2","legacy","Mann","1024","2","48000","-16","experiment","4","even","157191.740036","157121.61994","136463.272095","136462.801933","NA","NA","4936.06495857","85819.6041584","NA","156375.273943","NA","NA","NA","NA","NA","NA","NA","157628.697157","NA","NA","NA","157191.540003","NA","5010.39099693","NA","NA","NA","NA","156359.946012","NA","Tutorial: Gaze cuing","0","0","0","yes","1024"
"undefined","undefined","undefined","undefined","white","no","0","links","links","psycho","psycho","psycho","0","uniform","NA","NA","z","47","47","1","1","NA","NA","0","0","NA","47","NA","NA","NA","NA","NA","NA","NA","47","NA","0","NA","47","NA","0","0","NA","1","NA","47","NA","Tue Feb 20 13:55:25 2018","The main experiment item","yes","","Python Experiment.osexp","/Users/johannaschuller/Documents/Uni/Master/Erstes_Semester/Python/Pruefungsleistung","no","mono","no","18","no","black","no","Ok","NA","no","Male","768","psycho","/Users/johannaschuller/Documents/Uni/Master/Erstes_Semester/Python/Pruefungsleistung/Data/subject-4.csv","psycho","Interactive Ising","3.0.7","0","z","NA","NA","NA","NA","z","NA","451.31111145","NA","NA","NA","NA","58382.7259541","NA","NA","NA","2","legacy","Frau","1024","2","48000","-16","experiment","4","even","158608.08897","158538.520098","136463.272095","136462.801933","NA","NA","4936.06495857","85819.6041584","NA","157792.174101","NA","NA","NA","NA","NA","NA","NA","159061.809063","NA","NA","NA","158607.893944","NA","5010.39099693","NA","NA","NA","NA","157784.389973","NA","Tutorial: Gaze cuing","0","0","0","yes","1024"
"undefined","undefined","undefined","undefined","white","no","0","links","links","psycho","psycho","psycho","0","uniform","NA","NA","z","48","48","1","1","NA","NA","0","0","NA","48","NA","NA","NA","NA","NA","NA","NA","48","NA","0","NA","48","NA","0","0","NA","1","NA","48","NA","Tue Feb 20 13:55:25 2018","The main experiment item","yes","","Python Experiment.osexp","/Users/johannaschuller/Documents/Uni/Master/Erstes_Semester/Python/Pruefungsleistung","no","mono","no","18","no","black","no","Ok","NA","no","Male","768","psycho","/Users/johannaschuller/Documents/Uni/Master/Erstes_Semester/Python/Pruefungsleistung/Data/subject-4.csv","psycho","Interactive Ising","3.0.7","0","z","NA","NA","NA","NA","z","NA","400.808095932","NA","NA","NA","NA","58382.7259541","NA","NA","NA","2","legacy","Frau","1024","2","48000","-16","experiment","4","even","160041.607141","159972.289085","136463.272095","136462.801933","NA","NA","4936.06495857","85819.6041584","NA","159225.937128","NA","NA","NA","NA","NA","NA","NA","160444.658041","NA","NA","NA","160041.406155","NA","5010.39099693","NA","NA","NA","NA","159216.666937","NA","Tutorial: Gaze cuing","0","0","0","yes","1024"
"undefined","undefined","undefined","undefined","white","no","0","links","links","psycho","psycho","psycho","0","uniform","NA","NA","m","49","49","1","1","NA","NA","0","0","NA","49","NA","NA","NA","NA","NA","NA","NA","49","NA","0","NA","49","NA","0","0","NA","1","NA","49","NA","Tue Feb 20 13:55:25 2018","The main experiment item","yes","","Python Experiment.osexp","/Users/johannaschuller/Documents/Uni/Master/Erstes_Semester/Python/Pruefungsleistung","no","mono","no","18","no","black","no","Ok","NA","no","Male","768","psycho","/Users/johannaschuller/Documents/Uni/Master/Erstes_Semester/Python/Pruefungsleistung/Data/subject-4.csv","psycho","Interactive Ising","3.0.7","0","m","NA","NA","NA","NA","z","NA","547.590017319","NA","NA","NA","NA","58382.7259541","NA","NA","NA","2","legacy","Mann","1024","2","48000","-16","experiment","4","even","161425.781965","161354.982138","136463.272095","136462.801933","NA","NA","4936.06495857","85819.6041584","NA","160608.598948","NA","NA","NA","NA","NA","NA","NA","161975.661993","NA","NA","NA","161425.583124","NA","5010.39099693","NA","NA","NA","NA","160597.746134","NA","Tutorial: Gaze cuing","0","0","0","yes","1024"
"undefined","undefined","undefined","undefined","white","no","0","links","links","psycho","psycho","psycho","0","uniform","NA","NA","m","50","50","1","1","NA","NA","0","0","NA","50","NA","NA","NA","NA","NA","NA","NA","50","NA","0","NA","50","NA","0","0","NA","1","NA","50","NA","Tue Feb 20 13:55:25 2018","The main experiment item","yes","","Python Experiment.osexp","/Users/johannaschuller/Documents/Uni/Master/Erstes_Semester/Python/Pruefungsleistung","no","mono","no","18","no","black","no","Ok","NA","no","Male","768","psycho","/Users/johannaschuller/Documents/Uni/Master/Erstes_Semester/Python/Pruefungsleistung/Data/subject-4.csv","psycho","Interactive Ising","3.0.7","0","z","NA","NA","NA","NA","z","NA","405.048131943","NA","NA","NA","NA","58382.7259541","NA","NA","NA","2","legacy","Mann","1024","2","48000","-16","experiment","4","even","162976.284981","162904.840946","136463.272095","136462.801933","NA","NA","4936.06495857","85819.6041584","NA","162158.499002","NA","NA","NA","NA","NA","NA","NA","163383.573055","NA","NA","NA","162976.08614","NA","5010.39099693","NA","NA","NA","NA","162137.690067","NA","Tutorial: Gaze cuing","0","0","0","yes","1024"
"undefined","undefined","undefined","undefined","white","no","0","rechts","rechts","psycho","psycho","psycho","0","uniform","NA","NA","m","51","51","1","1","NA","NA","0","0","NA","51","NA","NA","NA","NA","NA","NA","NA","51","NA","0","NA","51","NA","0","0","NA","1","NA","51","NA","Tue Feb 20 13:55:25 2018","The main experiment item","yes","","Python Experiment.osexp","/Users/johannaschuller/Documents/Uni/Master/Erstes_Semester/Python/Pruefungsleistung","no","mono","no","18","no","black","no","Ok","NA","no","Male","768","psycho","/Users/johannaschuller/Documents/Uni/Master/Erstes_Semester/Python/Pruefungsleistung/Data/subject-4.csv","psycho","Interactive Ising","3.0.7","0","m","NA","NA","NA","NA","z","NA","770.377159119","NA","NA","NA","NA","58382.7259541","NA","NA","NA","2","legacy","Mann","1024","2","48000","-16","experiment","4","even","164392.89999","164323.163986","136463.272095","136462.801933","NA","NA","4936.06495857","85819.6041584","NA","163576.651096","NA","NA","NA","NA","NA","NA","NA","165165.560007","NA","NA","NA","164392.702103","NA","5010.39099693","NA","NA","NA","NA","163556.326151","NA","Tutorial: Gaze cuing","0","0","0","yes","1024"
"undefined","undefined","undefined","undefined","white","no","1","rechts","links","psycho","psycho","psycho","0","uniform","NA","NA","z","52","52","1","1","NA","NA","0","0","NA","52","NA","NA","NA","NA","NA","NA","NA","52","NA","0","NA","52","NA","0","0","NA","1","NA","52","NA","Tue Feb 20 13:55:25 2018","The main experiment item","yes","","Python Experiment.osexp","/Users/johannaschuller/Documents/Uni/Master/Erstes_Semester/Python/Pruefungsleistung","no","mono","no","18","no","black","no","Ok","NA","no","Male","768","psycho","/Users/johannaschuller/Documents/Uni/Master/Erstes_Semester/Python/Pruefungsleistung/Data/subject-4.csv","psycho","Interactive Ising","3.0.7","0","z","NA","NA","NA","NA","z","NA","384.603977203","NA","NA","NA","NA","58382.7259541","NA","NA","NA","2","legacy","Frau","1024","2","48000","-16","experiment","4","even","166142.652035","166072.139978","136463.272095","136462.801933","NA","NA","4936.06495857","85819.6041584","NA","165325.745106","NA","NA","NA","NA","NA","NA","NA","166529.488087","NA","NA","NA","166142.452002","NA","5010.39099693","NA","NA","NA","NA","165317.373991","NA","Tutorial: Gaze cuing","0","0","0","yes","1024"
"undefined","undefined","undefined","undefined","white","no","1","rechts","links","psycho","psycho","psycho","0","uniform","NA","NA","m","53","53","1","1","NA","NA","0","0","NA","53","NA","NA","NA","NA","NA","NA","NA","53","NA","0","NA","53","NA","0","0","NA","1","NA","53","NA","Tue Feb 20 13:55:25 2018","The main experiment item","yes","","Python Experiment.osexp","/Users/johannaschuller/Documents/Uni/Master/Erstes_Semester/Python/Pruefungsleistung","no","mono","no","18","no","black","no","Ok","NA","no","Male","768","psycho","/Users/johannaschuller/Documents/Uni/Master/Erstes_Semester/Python/Pruefungsleistung/Data/subject-4.csv","psycho","Interactive Ising","3.0.7","0","m","NA","NA","NA","NA","z","NA","498.342990875","NA","NA","NA","NA","58382.7259541","NA","NA","NA","2","legacy","Mann","1024","2","48000","-16","experiment","4","even","167509.89604","167438.831091","136463.272095","136462.801933","NA","NA","4936.06495857","85819.6041584","NA","166692.474127","NA","NA","NA","NA","NA","NA","NA","168010.650158","NA","NA","NA","167509.69696","NA","5010.39099693","NA","NA","NA","NA","166681.930065","NA","Tutorial: Gaze cuing","0","0","0","yes","1024"
"undefined","undefined","undefined","undefined","white","no","0","rechts","rechts","psycho","psycho","psycho","0","uniform","NA","NA","z","54","54","1","1","NA","NA","0","0","NA","54","NA","NA","NA","NA","NA","NA","NA","54","NA","0","NA","54","NA","0","0","NA","1","NA","54","NA","Tue Feb 20 13:55:25 2018","The main experiment item","yes","","Python Experiment.osexp","/Users/johannaschuller/Documents/Uni/Master/Erstes_Semester/Python/Pruefungsleistung","no","mono","no","18","no","black","no","Ok","NA","no","Male","768","psycho","/Users/johannaschuller/Documents/Uni/Master/Erstes_Semester/Python/Pruefungsleistung/Data/subject-4.csv","psycho","Interactive Ising","3.0.7","0","z","NA","NA","NA","NA","z","NA","445.489883423","NA","NA","NA","NA","58382.7259541","NA","NA","NA","2","legacy","Frau","1024","2","48000","-16","experiment","4","even","168993.920088","168923.20013","136463.272095","136462.801933","NA","NA","4936.06495857","85819.6041584","NA","168176.771164","NA","NA","NA","NA","NA","NA","NA","169441.910028","NA","NA","NA","168993.539095","NA","5010.39099693","NA","NA","NA","NA","168159.13415","NA","Tutorial: Gaze cuing","0","0","0","yes","1024"
"undefined","undefined","undefined","undefined","white","no","1","rechts","links","psycho","psycho","psycho","0","uniform","NA","NA","z","55","55","1","1","NA","NA","0","0","NA","55","NA","NA","NA","NA","NA","NA","NA","55","NA","0","NA","55","NA","0","0","NA","1","NA","55","NA","Tue Feb 20 13:55:25 2018","The main experiment item","yes","","Python Experiment.osexp","/Users/johannaschuller/Documents/Uni/Master/Erstes_Semester/Python/Pruefungsleistung","no","mono","no","18","no","black","no","Ok","NA","no","Male","768","psycho","/Users/johannaschuller/Documents/Uni/Master/Erstes_Semester/Python/Pruefungsleistung/Data/subject-4.csv","psycho","Interactive Ising","3.0.7","0","z","NA","NA","NA","NA","z","NA","365.468025208","NA","NA","NA","NA","58382.7259541","NA","NA","NA","2","legacy","Frau","1024","2","48000","-16","experiment","4","even","170443.608999","170356.088161","136463.272095","136462.801933","NA","NA","4936.06495857","85819.6041584","NA","169609.706163","NA","NA","NA","NA","NA","NA","NA","170811.365128","NA","NA","NA","170443.408012","NA","5010.39099693","NA","NA","NA","NA","169601.272106","NA","Tutorial: Gaze cuing","0","0","0","yes","1024"
"undefined","undefined","undefined","undefined","white","no","0","rechts","rechts","psycho","psycho","psycho","0","uniform","NA","NA","z","56","56","1","1","NA","NA","0","0","NA","56","NA","NA","NA","NA","NA","NA","NA","56","NA","0","NA","56","NA","0","0","NA","1","NA","56","NA","Tue Feb 20 13:55:25 2018","The main experiment item","yes","","Python Experiment.osexp","/Users/johannaschuller/Documents/Uni/Master/Erstes_Semester/Python/Pruefungsleistung","no","mono","no","18","no","black","no","Ok","NA","no","Male","768","psycho","/Users/johannaschuller/Documents/Uni/Master/Erstes_Semester/Python/Pruefungsleistung/Data/subject-4.csv","psycho","Interactive Ising","3.0.7","0","z","NA","NA","NA","NA","z","NA","400.307893753","NA","NA","NA","NA","58382.7259541","NA","NA","NA","2","legacy","Frau","1024","2","48000","-16","experiment","4","even","171809.798002","171740.347147","136463.272095","136462.801933","NA","NA","4936.06495857","85819.6041584","NA","170993.896961","NA","NA","NA","NA","NA","NA","NA","172212.291956","NA","NA","NA","171809.587955","NA","5010.39099693","NA","NA","NA","NA","170971.498966","NA","Tutorial: Gaze cuing","0","0","0","yes","1024"
"undefined","undefined","undefined","undefined","white","no","1","rechts","links","psycho","psycho","psycho","0","uniform","NA","NA","m","57","57","1","1","NA","NA","0","0","NA","57","NA","NA","NA","NA","NA","NA","NA","57","NA","0","NA","57","NA","0","0","NA","1","NA","57","NA","Tue Feb 20 13:55:25 2018","The main experiment item","yes","","Python Experiment.osexp","/Users/johannaschuller/Documents/Uni/Master/Erstes_Semester/Python/Pruefungsleistung","no","mono","no","18","no","black","no","Ok","NA","no","Male","768","psycho","/Users/johannaschuller/Documents/Uni/Master/Erstes_Semester/Python/Pruefungsleistung/Data/subject-4.csv","psycho","Interactive Ising","3.0.7","0","m","NA","NA","NA","NA","z","NA","415.338039398","NA","NA","NA","NA","58382.7259541","NA","NA","NA","2","legacy","Mann","1024","2","48000","-16","experiment","4","even","173193.637133","173123.039961","136463.272095","136462.801933","NA","NA","4936.06495857","85819.6041584","NA","172376.893997","NA","NA","NA","NA","NA","NA","NA","173611.130953","NA","NA","NA","173193.438053","NA","5010.39099693","NA","NA","NA","NA","172359.205961","NA","Tutorial: Gaze cuing","0","0","0","yes","1024"
"undefined","undefined","undefined","undefined","white","no","1","rechts","links","psycho","psycho","psycho","0","uniform","NA","NA","z","58","58","1","1","NA","NA","0","0","NA","58","NA","NA","NA","NA","NA","NA","NA","58","NA","0","NA","58","NA","0","0","NA","1","NA","58","NA","Tue Feb 20 13:55:25 2018","The main experiment item","yes","","Python Experiment.osexp","/Users/johannaschuller/Documents/Uni/Master/Erstes_Semester/Python/Pruefungsleistung","no","mono","no","18","no","black","no","Ok","NA","no","Male","768","psycho","/Users/johannaschuller/Documents/Uni/Master/Erstes_Semester/Python/Pruefungsleistung/Data/subject-4.csv","psycho","Interactive Ising","3.0.7","0","z","NA","NA","NA","NA","z","NA","458.287000656","NA","NA","NA","NA","58382.7259541","NA","NA","NA","2","legacy","Frau","1024","2","48000","-16","experiment","4","even","174593.873024","174523.335934","136463.272095","136462.801933","NA","NA","4936.06495857","85819.6041584","NA","173776.852131","NA","NA","NA","NA","NA","NA","NA","175054.585934","NA","NA","NA","174593.673944","NA","5010.39099693","NA","NA","NA","NA","173763.133049","NA","Tutorial: Gaze cuing","0","0","0","yes","1024"
"undefined","undefined","undefined","undefined","white","no","0","rechts","rechts","psycho","psycho","psycho","0","uniform","NA","NA","z","59","59","1","1","NA","NA","0","0","NA","59","NA","NA","NA","NA","NA","NA","NA","59","NA","0","NA","59","NA","0","0","NA","1","NA","59","NA","Tue Feb 20 13:55:25 2018","The main experiment item","yes","","Python Experiment.osexp","/Users/johannaschuller/Documents/Uni/Master/Erstes_Semester/Python/Pruefungsleistung","no","mono","no","18","no","black","no","Ok","NA","no","Male","768","psycho","/Users/johannaschuller/Documents/Uni/Master/Erstes_Semester/Python/Pruefungsleistung/Data/subject-4.csv","psycho","Interactive Ising","3.0.7","0","z","NA","NA","NA","NA","z","NA","511.964082718","NA","NA","NA","NA","58382.7259541","NA","NA","NA","2","legacy","Frau","1024","2","48000","-16","experiment","4","even","176027.227163","175956.354141","136463.272095","136462.801933","NA","NA","4936.06495857","85819.6041584","NA","175210.196018","NA","NA","NA","NA","NA","NA","NA","176542.196035","NA","NA","NA","176027.028084","NA","5010.39099693","NA","NA","NA","NA","175201.450109","NA","Tutorial: Gaze cuing","0","0","0","yes","1024"
"undefined","undefined","undefined","undefined","white","no","0","links","rechts","psycho","psycho","psycho","0","uniform","NA","NA","m","60","60","1","1","NA","NA","0","0","NA","60","NA","NA","NA","NA","NA","NA","NA","60","NA","0","NA","60","NA","0","0","NA","1","NA","60","NA","Tue Feb 20 13:55:25 2018","The main experiment item","yes","","Python Experiment.osexp","/Users/johannaschuller/Documents/Uni/Master/Erstes_Semester/Python/Pruefungsleistung","no","mono","no","18","no","black","no","Ok","NA","no","Male","768","psycho","/Users/johannaschuller/Documents/Uni/Master/Erstes_Semester/Python/Pruefungsleistung/Data/subject-4.csv","psycho","Interactive Ising","3.0.7","0","m","NA","NA","NA","NA","z","NA","531.654119492","NA","NA","NA","NA","58382.7259541","NA","NA","NA","2","legacy","Mann","1024","2","48000","-16","experiment","4","even","177527.281046","177457.122087","136463.272095","136462.801933","NA","NA","4936.06495857","85819.6041584","NA","176710.757971","NA","NA","NA","NA","NA","NA","NA","178061.053038","NA","NA","NA","177527.083158","NA","5010.39099693","NA","NA","NA","NA","176691.17403","NA","Tutorial: Gaze cuing","0","0","0","yes","1024"
"undefined","undefined","undefined","undefined","white","no","0","rechts","rechts","psycho","psycho","psycho","0","uniform","NA","NA","m","61","61","1","1","NA","NA","0","0","NA","61","NA","NA","NA","NA","NA","NA","NA","61","NA","0","NA","61","NA","0","0","NA","1","NA","61","NA","Tue Feb 20 13:55:25 2018","The main experiment item","yes","","Python Experiment.osexp","/Users/johannaschuller/Documents/Uni/Master/Erstes_Semester/Python/Pruefungsleistung","no","mono","no","18","no","black","no","Ok","NA","no","Male","768","psycho","/Users/johannaschuller/Documents/Uni/Master/Erstes_Semester/Python/Pruefungsleistung/Data/subject-4.csv","psycho","Interactive Ising","3.0.7","0","m","NA","NA","NA","NA","z","NA","487.156152725","NA","NA","NA","NA","58382.7259541","NA","NA","NA","2","legacy","Mann","1024","2","48000","-16","experiment","4","even","179043.746948","178973.634005","136463.272095","136462.801933","NA","NA","4936.06495857","85819.6041584","NA","178227.200031","NA","NA","NA","NA","NA","NA","NA","179533.576965","NA","NA","NA","179043.548107","NA","5010.39099693","NA","NA","NA","NA","178207.162142","NA","Tutorial: Gaze cuing","0","0","0","yes","1024"
"undefined","undefined","undefined","undefined","white","no","0","rechts","rechts","psycho","psycho","psycho","0","uniform","NA","NA","m","62","62","1","1","NA","NA","0","0","NA","62","NA","NA","NA","NA","NA","NA","NA","62","NA","0","NA","62","NA","0","0","NA","1","NA","62","NA","Tue Feb 20 13:55:25 2018","The main experiment item","yes","","Python Experiment.osexp","/Users/johannaschuller/Documents/Uni/Master/Erstes_Semester/Python/Pruefungsleistung","no","mono","no","18","no","black","no","Ok","NA","no","Male","768","psycho","/Users/johannaschuller/Documents/Uni/Master/Erstes_Semester/Python/Pruefungsleistung/Data/subject-4.csv","psycho","Interactive Ising","3.0.7","0","m","NA","NA","NA","NA","z","NA","415.720939636","NA","NA","NA","NA","58382.7259541","NA","NA","NA","2","legacy","Mann","1024","2","48000","-16","experiment","4","even","180527.151108","180440.335989","136463.272095","136462.801933","NA","NA","4936.06495857","85819.6041584","NA","179693.935156","NA","NA","NA","NA","NA","NA","NA","180945.124149","NA","NA","NA","180526.952982","NA","5010.39099693","NA","NA","NA","NA","179680.256128","NA","Tutorial: Gaze cuing","0","0","0","yes","1024"
"undefined","undefined","undefined","undefined","white","no","0","links","rechts","psycho","psycho","psycho","0","uniform","NA","NA","m","63","63","1","1","NA","NA","0","0","NA","63","NA","NA","NA","NA","NA","NA","NA","63","NA","0","NA","63","NA","0","0","NA","1","NA","63","NA","Tue Feb 20 13:55:25 2018","The main experiment item","yes","","Python Experiment.osexp","/Users/johannaschuller/Documents/Uni/Master/Erstes_Semester/Python/Pruefungsleistung","no","mono","no","18","no","black","no","Ok","NA","no","Male","768","psycho","/Users/johannaschuller/Documents/Uni/Master/Erstes_Semester/Python/Pruefungsleistung/Data/subject-4.csv","psycho","Interactive Ising","3.0.7","0","m","NA","NA","NA","NA","z","NA","302.540779114","NA","NA","NA","NA","58382.7259541","NA","NA","NA","2","legacy","Mann","1024","2","48000","-16","experiment","4","even","181927.335978","181858.914137","136463.272095","136462.801933","NA","NA","4936.06495857","85819.6041584","NA","181112.396002","NA","NA","NA","NA","NA","NA","NA","182232.013941","NA","NA","NA","181927.124977","NA","5010.39099693","NA","NA","NA","NA","181104.140043","NA","Tutorial: Gaze cuing","0","0","0","yes","1024"
