"acc","accuracy","average_response_time","avg_rt","background","bidi","blickr_congruency","blickr_eins","blickr_zwei","canvas_backend","clock_backend","color_backend","compensation","coordinates","correct","correct_keyboard_response","correct_response","count_Response","count_Target_1","count_block_loop","count_block_sequence","count_end_of_experiment","count_end_of_practice","count_experiment","count_experimental_loop","count_feedback","count_fixation_dot","count_gaze_cue","count_gaze_cue_1","count_gaze_neutral","count_getting_started","count_incorrect_sound","count_instructions","count_keyboard_response","count_logger","count_neutral_gaze","count_new_form_multiple_choice","count_new_logger","count_new_sketchpad","count_new_sketchpad_1","count_new_sketchpad_2","count_new_sketchpad_3","count_practice_loop","count_reset_feedback","count_target","count_trial_sequence","count_welcome","datetime","description","disable_garbage_collection","empty_column","experiment_file","experiment_path","font_bold","font_family","font_italic","font_size","font_underline","foreground","form_clicks","form_response","form_var","fullscreen","gender_subj","height","keyboard_backend","logfile","mouse_backend","opensesame_codename","opensesame_version","repeat_cycle","response","response_feedback","response_incorrect_sound","response_keyboard_response","response_new_sketchpad_1","response_new_sketchpad_2","response_new_sketchpad_3","response_time","response_time_feedback","response_time_incorrect_sound","response_time_keyboard_response","response_time_new_sketchpad_1","response_time_new_sketchpad_2","response_time_new_sketchpad_3","response_time_welcome","response_welcome","round_decimals","sampler_backend","sex","sound_buf_size","sound_channels","sound_freq","sound_sample_size","start","subject_nr","subject_parity","time_Response","time_Target_1","time_block_loop","time_block_sequence","time_end_of_experiment","time_end_of_practice","time_experiment","time_experimental_loop","time_feedback","time_fixation_dot","time_gaze_cue","time_gaze_cue_1","time_gaze_neutral","time_getting_started","time_incorrect_sound","time_instructions","time_keyboard_response","time_logger","time_neutral_gaze","time_new_form_multiple_choice","time_new_logger","time_new_sketchpad","time_new_sketchpad_1","time_new_sketchpad_2","time_new_sketchpad_3","time_practice_loop","time_reset_feedback","time_target","time_trial_sequence","time_welcome","title","total_correct","total_response_time","total_responses","uniform_coordinates","width"
"undefined","undefined","undefined","undefined","white","no","0","rechts","rechts","psycho","psycho","psycho","0","uniform","NA","NA","m","0","0","0","0","NA","NA","0","0","NA","0","NA","NA","NA","NA","NA","NA","NA","0","NA","0","NA","0","NA","0","0","NA","0","NA","0","NA","Tue Feb 13 14:57:33 2018","The main experiment item","yes","","Python Experiment.osexp","/Users/johannaschuller/Documents/Uni/Master/Erstes_Semester/Python/Pruefungsleistung","no","mono","no","18","no","black","no","Ok","NA","no","Male","768","psycho","/Users/johannaschuller/Documents/Uni/Master/Erstes_Semester/Python/Pruefungsleistung/subject-2.csv","psycho","Interactive Ising","3.0.7","0","z","NA","NA","NA","NA","space","NA","722.347021103","NA","NA","NA","NA","1591.13097191","NA","NA","NA","2","legacy","Mann","1024","2","48000","-16","experiment","2","even","13020.89715","12951.2171745","12023.1580734","12022.8040218","NA","NA","4030.92002869","12021.8811035","NA","12204.8389912","NA","NA","NA","NA","NA","NA","NA","13745.6390858","NA","NA","NA","13020.6999779","NA","4087.56113052","NA","NA","NA","NA","12192.5690174","NA","Tutorial: Gaze cuing","0","0","0","yes","1024"
"undefined","undefined","undefined","undefined","white","no","0","rechts","rechts","psycho","psycho","psycho","0","uniform","NA","NA","z","1","1","0","0","NA","NA","0","0","NA","1","NA","NA","NA","NA","NA","NA","NA","1","NA","0","NA","1","NA","0","0","NA","0","NA","1","NA","Tue Feb 13 14:57:33 2018","The main experiment item","yes","","Python Experiment.osexp","/Users/johannaschuller/Documents/Uni/Master/Erstes_Semester/Python/Pruefungsleistung","no","mono","no","18","no","black","no","Ok","NA","no","Male","768","psycho","/Users/johannaschuller/Documents/Uni/Master/Erstes_Semester/Python/Pruefungsleistung/subject-2.csv","psycho","Interactive Ising","3.0.7","0","z","NA","NA","NA","NA","space","NA","417.767047882","NA","NA","NA","NA","1591.13097191","NA","NA","NA","2","legacy","Frau","1024","2","48000","-16","experiment","2","even","14738.2030487","14667.15312","12023.1580734","12022.8040218","NA","NA","4030.92002869","12021.8811035","NA","13920.7291603","NA","NA","NA","NA","NA","NA","NA","15158.2670212","NA","NA","NA","14738.0051613","NA","4087.56113052","NA","NA","NA","NA","13910.392046","NA","Tutorial: Gaze cuing","0","0","0","yes","1024"
"undefined","undefined","undefined","undefined","white","no","1","rechts","links","psycho","psycho","psycho","0","uniform","NA","NA","z","2","2","0","0","NA","NA","0","0","NA","2","NA","NA","NA","NA","NA","NA","NA","2","NA","0","NA","2","NA","0","0","NA","0","NA","2","NA","Tue Feb 13 14:57:33 2018","The main experiment item","yes","","Python Experiment.osexp","/Users/johannaschuller/Documents/Uni/Master/Erstes_Semester/Python/Pruefungsleistung","no","mono","no","18","no","black","no","Ok","NA","no","Male","768","psycho","/Users/johannaschuller/Documents/Uni/Master/Erstes_Semester/Python/Pruefungsleistung/subject-2.csv","psycho","Interactive Ising","3.0.7","0","z","NA","NA","NA","NA","space","NA","297.324895859","NA","NA","NA","NA","1591.13097191","NA","NA","NA","2","legacy","Frau","1024","2","48000","-16","experiment","2","even","16138.7369633","16067.0990944","12023.1580734","12022.8040218","NA","NA","4030.92002869","12021.8811035","NA","15321.5680122","NA","NA","NA","NA","NA","NA","NA","16438.4350777","NA","NA","NA","16138.5381222","NA","4087.56113052","NA","NA","NA","NA","15308.7320328","NA","Tutorial: Gaze cuing","0","0","0","yes","1024"
"undefined","undefined","undefined","undefined","white","no","0","links","rechts","psycho","psycho","psycho","0","uniform","NA","NA","m","3","3","0","0","NA","NA","0","0","NA","3","NA","NA","NA","NA","NA","NA","NA","3","NA","0","NA","3","NA","0","0","NA","0","NA","3","NA","Tue Feb 13 14:57:33 2018","The main experiment item","yes","","Python Experiment.osexp","/Users/johannaschuller/Documents/Uni/Master/Erstes_Semester/Python/Pruefungsleistung","no","mono","no","18","no","black","no","Ok","NA","no","Male","768","psycho","/Users/johannaschuller/Documents/Uni/Master/Erstes_Semester/Python/Pruefungsleistung/subject-2.csv","psycho","Interactive Ising","3.0.7","0","m","NA","NA","NA","NA","space","NA","246.636152267","NA","NA","NA","NA","1591.13097191","NA","NA","NA","2","legacy","Mann","1024","2","48000","-16","experiment","2","even","17421.3891029","17351.0780334","12023.1580734","12022.8040218","NA","NA","4030.92002869","12021.8811035","NA","16604.6750546","NA","NA","NA","NA","NA","NA","NA","17670.3271866","NA","NA","NA","17421.1921692","NA","4087.56113052","NA","NA","NA","NA","16594.451189","NA","Tutorial: Gaze cuing","0","0","0","yes","1024"
"undefined","undefined","undefined","undefined","white","no","0","rechts","rechts","psycho","psycho","psycho","0","uniform","NA","NA","m","4","4","0","0","NA","NA","0","0","NA","4","NA","NA","NA","NA","NA","NA","NA","4","NA","0","NA","4","NA","0","0","NA","0","NA","4","NA","Tue Feb 13 14:57:33 2018","The main experiment item","yes","","Python Experiment.osexp","/Users/johannaschuller/Documents/Uni/Master/Erstes_Semester/Python/Pruefungsleistung","no","mono","no","18","no","black","no","Ok","NA","no","Male","768","psycho","/Users/johannaschuller/Documents/Uni/Master/Erstes_Semester/Python/Pruefungsleistung/subject-2.csv","psycho","Interactive Ising","3.0.7","0","m","NA","NA","NA","NA","space","NA","295.727014542","NA","NA","NA","NA","1591.13097191","NA","NA","NA","2","legacy","Mann","1024","2","48000","-16","experiment","2","even","18655.148983","18584.5341682","12023.1580734","12022.8040218","NA","NA","4030.92002869","12021.8811035","NA","17838.1240368","NA","NA","NA","NA","NA","NA","NA","18953.3190727","NA","NA","NA","18654.9501419","NA","4087.56113052","NA","NA","NA","NA","17822.8440285","NA","Tutorial: Gaze cuing","0","0","0","yes","1024"
"undefined","undefined","undefined","undefined","white","no","0","links","rechts","psycho","psycho","psycho","0","uniform","NA","NA","z","5","5","0","0","NA","NA","0","0","NA","5","NA","NA","NA","NA","NA","NA","NA","5","NA","0","NA","5","NA","0","0","NA","0","NA","5","NA","Tue Feb 13 14:57:33 2018","The main experiment item","yes","","Python Experiment.osexp","/Users/johannaschuller/Documents/Uni/Master/Erstes_Semester/Python/Pruefungsleistung","no","mono","no","18","no","black","no","Ok","NA","no","Male","768","psycho","/Users/johannaschuller/Documents/Uni/Master/Erstes_Semester/Python/Pruefungsleistung/subject-2.csv","psycho","Interactive Ising","3.0.7","0","z","NA","NA","NA","NA","space","NA","299.251079559","NA","NA","NA","NA","1591.13097191","NA","NA","NA","2","legacy","Frau","1024","2","48000","-16","experiment","2","even","19938.762188","19868.3350086","12023.1580734","12022.8040218","NA","NA","4030.92002869","12021.8811035","NA","19121.958971","NA","NA","NA","NA","NA","NA","NA","20240.404129","NA","NA","NA","19938.5640621","NA","4087.56113052","NA","NA","NA","NA","19106.6451073","NA","Tutorial: Gaze cuing","0","0","0","yes","1024"
"undefined","undefined","undefined","undefined","white","no","0","links","rechts","psycho","psycho","psycho","0","uniform","NA","NA","m","6","6","0","0","NA","NA","0","0","NA","6","NA","NA","NA","NA","NA","NA","NA","6","NA","0","NA","6","NA","0","0","NA","0","NA","6","NA","Tue Feb 13 14:57:33 2018","The main experiment item","yes","","Python Experiment.osexp","/Users/johannaschuller/Documents/Uni/Master/Erstes_Semester/Python/Pruefungsleistung","no","mono","no","18","no","black","no","Ok","NA","no","Male","768","psycho","/Users/johannaschuller/Documents/Uni/Master/Erstes_Semester/Python/Pruefungsleistung/subject-2.csv","psycho","Interactive Ising","3.0.7","0","m","NA","NA","NA","NA","space","NA","295.433998108","NA","NA","NA","NA","1591.13097191","NA","NA","NA","2","legacy","Mann","1024","2","48000","-16","experiment","2","even","21238.4750843","21168.320179","12023.1580734","12022.8040218","NA","NA","4030.92002869","12021.8811035","NA","20421.9400883","NA","NA","NA","NA","NA","NA","NA","21536.178112","NA","NA","NA","21238.2760048","NA","4087.56113052","NA","NA","NA","NA","20405.2569866","NA","Tutorial: Gaze cuing","0","0","0","yes","1024"
"undefined","undefined","undefined","undefined","white","no","0","links","links","psycho","psycho","psycho","0","uniform","NA","NA","z","7","7","0","0","NA","NA","0","0","NA","7","NA","NA","NA","NA","NA","NA","NA","7","NA","0","NA","7","NA","0","0","NA","0","NA","7","NA","Tue Feb 13 14:57:33 2018","The main experiment item","yes","","Python Experiment.osexp","/Users/johannaschuller/Documents/Uni/Master/Erstes_Semester/Python/Pruefungsleistung","no","mono","no","18","no","black","no","Ok","NA","no","Male","768","psycho","/Users/johannaschuller/Documents/Uni/Master/Erstes_Semester/Python/Pruefungsleistung/subject-2.csv","psycho","Interactive Ising","3.0.7","0","z","NA","NA","NA","NA","space","NA","297.308921814","NA","NA","NA","NA","1591.13097191","NA","NA","NA","2","legacy","Frau","1024","2","48000","-16","experiment","2","even","22522.5219727","22451.2200356","12023.1580734","12022.8040218","NA","NA","4030.92002869","12021.8811035","NA","21704.8771381","NA","NA","NA","NA","NA","NA","NA","22822.2670555","NA","NA","NA","22522.3221779","NA","4087.56113052","NA","NA","NA","NA","21690.6721592","NA","Tutorial: Gaze cuing","0","0","0","yes","1024"
"undefined","undefined","undefined","undefined","white","no","1","rechts","links","psycho","psycho","psycho","0","uniform","NA","NA","z","8","8","0","0","NA","NA","0","0","NA","8","NA","NA","NA","NA","NA","NA","NA","8","NA","0","NA","8","NA","0","0","NA","0","NA","8","NA","Tue Feb 13 14:57:33 2018","The main experiment item","yes","","Python Experiment.osexp","/Users/johannaschuller/Documents/Uni/Master/Erstes_Semester/Python/Pruefungsleistung","no","mono","no","18","no","black","no","Ok","NA","no","Male","768","psycho","/Users/johannaschuller/Documents/Uni/Master/Erstes_Semester/Python/Pruefungsleistung/subject-2.csv","psycho","Interactive Ising","3.0.7","0","z","NA","NA","NA","NA","space","NA","281.536102295","NA","NA","NA","NA","1591.13097191","NA","NA","NA","2","legacy","Frau","1024","2","48000","-16","experiment","2","even","23805.3710461","23734.6229553","12023.1580734","12022.8040218","NA","NA","4030.92002869","12021.8811035","NA","22988.2380962","NA","NA","NA","NA","NA","NA","NA","24089.3290043","NA","NA","NA","23805.1741123","NA","4087.56113052","NA","NA","NA","NA","22978.2021046","NA","Tutorial: Gaze cuing","0","0","0","yes","1024"
"undefined","undefined","undefined","undefined","white","no","0","links","rechts","psycho","psycho","psycho","0","uniform","NA","NA","z","9","9","0","0","NA","NA","0","0","NA","9","NA","NA","NA","NA","NA","NA","NA","9","NA","0","NA","9","NA","0","0","NA","0","NA","9","NA","Tue Feb 13 14:57:33 2018","The main experiment item","yes","","Python Experiment.osexp","/Users/johannaschuller/Documents/Uni/Master/Erstes_Semester/Python/Pruefungsleistung","no","mono","no","18","no","black","no","Ok","NA","no","Male","768","psycho","/Users/johannaschuller/Documents/Uni/Master/Erstes_Semester/Python/Pruefungsleistung/subject-2.csv","psycho","Interactive Ising","3.0.7","0","z","NA","NA","NA","NA","space","NA","236.971139908","NA","NA","NA","NA","1591.13097191","NA","NA","NA","2","legacy","Frau","1024","2","48000","-16","experiment","2","even","25088.7281895","25018.2070732","12023.1580734","12022.8040218","NA","NA","4030.92002869","12021.8811035","NA","24272.0561028","NA","NA","NA","NA","NA","NA","NA","25327.9480934","NA","NA","NA","25088.5310173","NA","4087.56113052","NA","NA","NA","NA","24250.6580353","NA","Tutorial: Gaze cuing","0","0","0","yes","1024"
"undefined","undefined","undefined","undefined","white","no","0","links","links","psycho","psycho","psycho","0","uniform","NA","NA","m","10","10","0","0","NA","NA","0","0","NA","10","NA","NA","NA","NA","NA","NA","NA","10","NA","0","NA","10","NA","0","0","NA","0","NA","10","NA","Tue Feb 13 14:57:33 2018","The main experiment item","yes","","Python Experiment.osexp","/Users/johannaschuller/Documents/Uni/Master/Erstes_Semester/Python/Pruefungsleistung","no","mono","no","18","no","black","no","Ok","NA","no","Male","768","psycho","/Users/johannaschuller/Documents/Uni/Master/Erstes_Semester/Python/Pruefungsleistung/subject-2.csv","psycho","Interactive Ising","3.0.7","0","m","NA","NA","NA","NA","space","NA","275.547981262","NA","NA","NA","NA","1591.13097191","NA","NA","NA","2","legacy","Mann","1024","2","48000","-16","experiment","2","even","26422.1651554","26352.107048","12023.1580734","12022.8040218","NA","NA","4030.92002869","12021.8811035","NA","25605.7021618","NA","NA","NA","NA","NA","NA","NA","26700.1371384","NA","NA","NA","26421.9679832","NA","4087.56113052","NA","NA","NA","NA","25583.6651325","NA","Tutorial: Gaze cuing","0","0","0","yes","1024"
"undefined","undefined","undefined","undefined","white","no","0","rechts","rechts","psycho","psycho","psycho","0","uniform","NA","NA","z","11","11","0","0","NA","NA","0","0","NA","11","NA","NA","NA","NA","NA","NA","NA","11","NA","0","NA","11","NA","0","0","NA","0","NA","11","NA","Tue Feb 13 14:57:33 2018","The main experiment item","yes","","Python Experiment.osexp","/Users/johannaschuller/Documents/Uni/Master/Erstes_Semester/Python/Pruefungsleistung","no","mono","no","18","no","black","no","Ok","NA","no","Male","768","psycho","/Users/johannaschuller/Documents/Uni/Master/Erstes_Semester/Python/Pruefungsleistung/subject-2.csv","psycho","Interactive Ising","3.0.7","0","z","NA","NA","NA","NA","space","NA","227.70190239","NA","NA","NA","NA","1591.13097191","NA","NA","NA","2","legacy","Frau","1024","2","48000","-16","experiment","2","even","27672.9631424","27602.0700932","12023.1580734","12022.8040218","NA","NA","4030.92002869","12021.8811035","NA","26855.7200432","NA","NA","NA","NA","NA","NA","NA","27903.0251503","NA","NA","NA","27672.7650166","NA","4087.56113052","NA","NA","NA","NA","26847.4349976","NA","Tutorial: Gaze cuing","0","0","0","yes","1024"
"undefined","undefined","undefined","undefined","white","no","0","links","links","psycho","psycho","psycho","0","uniform","NA","NA","m","12","12","0","0","NA","NA","0","0","NA","12","NA","NA","NA","NA","NA","NA","NA","12","NA","0","NA","12","NA","0","0","NA","0","NA","12","NA","Tue Feb 13 14:57:33 2018","The main experiment item","yes","","Python Experiment.osexp","/Users/johannaschuller/Documents/Uni/Master/Erstes_Semester/Python/Pruefungsleistung","no","mono","no","18","no","black","no","Ok","NA","no","Male","768","psycho","/Users/johannaschuller/Documents/Uni/Master/Erstes_Semester/Python/Pruefungsleistung/subject-2.csv","psycho","Interactive Ising","3.0.7","0","z","NA","NA","NA","NA","space","NA","218.600034714","NA","NA","NA","NA","1591.13097191","NA","NA","NA","2","legacy","Mann","1024","2","48000","-16","experiment","2","even","28873.3980656","28802.4539948","12023.1580734","12022.8040218","NA","NA","4030.92002869","12021.8811035","NA","28056.0200214","NA","NA","NA","NA","NA","NA","NA","29095.2720642","NA","NA","NA","28873.2020855","NA","4087.56113052","NA","NA","NA","NA","28044.5661545","NA","Tutorial: Gaze cuing","0","0","0","yes","1024"
"undefined","undefined","undefined","undefined","white","no","1","rechts","links","psycho","psycho","psycho","0","uniform","NA","NA","z","13","13","0","0","NA","NA","0","0","NA","13","NA","NA","NA","NA","NA","NA","NA","13","NA","0","NA","13","NA","0","0","NA","0","NA","13","NA","Tue Feb 13 14:57:33 2018","The main experiment item","yes","","Python Experiment.osexp","/Users/johannaschuller/Documents/Uni/Master/Erstes_Semester/Python/Pruefungsleistung","no","mono","no","18","no","black","no","Ok","NA","no","Male","768","psycho","/Users/johannaschuller/Documents/Uni/Master/Erstes_Semester/Python/Pruefungsleistung/subject-2.csv","psycho","Interactive Ising","3.0.7","0","z","NA","NA","NA","NA","space","NA","281.744003296","NA","NA","NA","NA","1591.13097191","NA","NA","NA","2","legacy","Frau","1024","2","48000","-16","experiment","2","even","30072.920084","30002.751112","12023.1580734","12022.8040218","NA","NA","4030.92002869","12021.8811035","NA","29256.3900948","NA","NA","NA","NA","NA","NA","NA","30357.0921421","NA","NA","NA","30072.7219582","NA","4087.56113052","NA","NA","NA","NA","29246.4160919","NA","Tutorial: Gaze cuing","0","0","0","yes","1024"
"undefined","undefined","undefined","undefined","white","no","0","links","links","psycho","psycho","psycho","0","uniform","NA","NA","m","14","14","0","0","NA","NA","0","0","NA","14","NA","NA","NA","NA","NA","NA","NA","14","NA","0","NA","14","NA","0","0","NA","0","NA","14","NA","Tue Feb 13 14:57:33 2018","The main experiment item","yes","","Python Experiment.osexp","/Users/johannaschuller/Documents/Uni/Master/Erstes_Semester/Python/Pruefungsleistung","no","mono","no","18","no","black","no","Ok","NA","no","Male","768","psycho","/Users/johannaschuller/Documents/Uni/Master/Erstes_Semester/Python/Pruefungsleistung/subject-2.csv","psycho","Interactive Ising","3.0.7","0","m","NA","NA","NA","NA","space","NA","377.717971802","NA","NA","NA","NA","1591.13097191","NA","NA","NA","2","legacy","Mann","1024","2","48000","-16","experiment","2","even","31339.8060799","31269.1090107","12023.1580734","12022.8040218","NA","NA","4030.92002869","12021.8811035","NA","30522.6860046","NA","NA","NA","NA","NA","NA","NA","31719.9821472","NA","NA","NA","31339.6070004","NA","4087.56113052","NA","NA","NA","NA","30517.0850754","NA","Tutorial: Gaze cuing","0","0","0","yes","1024"
"undefined","undefined","undefined","undefined","white","no","0","links","links","psycho","psycho","psycho","0","uniform","NA","NA","z","15","15","0","0","NA","NA","0","0","NA","15","NA","NA","NA","NA","NA","NA","NA","15","NA","0","NA","15","NA","0","0","NA","0","NA","15","NA","Tue Feb 13 14:57:33 2018","The main experiment item","yes","","Python Experiment.osexp","/Users/johannaschuller/Documents/Uni/Master/Erstes_Semester/Python/Pruefungsleistung","no","mono","no","18","no","black","no","Ok","NA","no","Male","768","psycho","/Users/johannaschuller/Documents/Uni/Master/Erstes_Semester/Python/Pruefungsleistung/subject-2.csv","psycho","Interactive Ising","3.0.7","0","z","NA","NA","NA","NA","space","NA","311.233997345","NA","NA","NA","NA","1591.13097191","NA","NA","NA","2","legacy","Frau","1024","2","48000","-16","experiment","2","even","32706.3350677","32636.6560459","12023.1580734","12022.8040218","NA","NA","4030.92002869","12021.8811035","NA","31890.2211189","NA","NA","NA","NA","NA","NA","NA","33019.9110508","NA","NA","NA","32706.1359882","NA","4087.56113052","NA","NA","NA","NA","31869.36903","NA","Tutorial: Gaze cuing","0","0","0","yes","1024"
"undefined","undefined","undefined","undefined","white","no","0","links","links","psycho","psycho","psycho","0","uniform","NA","NA","z","16","16","0","0","NA","NA","0","0","NA","16","NA","NA","NA","NA","NA","NA","NA","16","NA","0","NA","16","NA","0","0","NA","0","NA","16","NA","Tue Feb 13 14:57:33 2018","The main experiment item","yes","","Python Experiment.osexp","/Users/johannaschuller/Documents/Uni/Master/Erstes_Semester/Python/Pruefungsleistung","no","mono","no","18","no","black","no","Ok","NA","no","Male","768","psycho","/Users/johannaschuller/Documents/Uni/Master/Erstes_Semester/Python/Pruefungsleistung/subject-2.csv","psycho","Interactive Ising","3.0.7","0","z","NA","NA","NA","NA","space","NA","333.752155304","NA","NA","NA","NA","1591.13097191","NA","NA","NA","2","legacy","Frau","1024","2","48000","-16","experiment","2","even","34006.8950653","33935.3129864","12023.1580734","12022.8040218","NA","NA","4030.92002869","12021.8811035","NA","33189.5890236","NA","NA","NA","NA","NA","NA","NA","34344.1460133","NA","NA","NA","34006.6981316","NA","4087.56113052","NA","NA","NA","NA","33171.2319851","NA","Tutorial: Gaze cuing","0","0","0","yes","1024"
"undefined","undefined","undefined","undefined","white","no","0","rechts","rechts","psycho","psycho","psycho","0","uniform","NA","NA","z","17","17","0","0","NA","NA","0","0","NA","17","NA","NA","NA","NA","NA","NA","NA","17","NA","0","NA","17","NA","0","0","NA","0","NA","17","NA","Tue Feb 13 14:57:33 2018","The main experiment item","yes","","Python Experiment.osexp","/Users/johannaschuller/Documents/Uni/Master/Erstes_Semester/Python/Pruefungsleistung","no","mono","no","18","no","black","no","Ok","NA","no","Male","768","psycho","/Users/johannaschuller/Documents/Uni/Master/Erstes_Semester/Python/Pruefungsleistung/subject-2.csv","psycho","Interactive Ising","3.0.7","0","z","NA","NA","NA","NA","space","NA","342.64588356","NA","NA","NA","NA","1591.13097191","NA","NA","NA","2","legacy","Frau","1024","2","48000","-16","experiment","2","even","35323.6980438","35252.8040409","12023.1580734","12022.8040218","NA","NA","4030.92002869","12021.8811035","NA","34506.4511299","NA","NA","NA","NA","NA","NA","NA","35668.6561108","NA","NA","NA","35323.4989643","NA","4087.56113052","NA","NA","NA","NA","34495.4409599","NA","Tutorial: Gaze cuing","0","0","0","yes","1024"
"undefined","undefined","undefined","undefined","white","no","0","links","links","psycho","psycho","psycho","0","uniform","NA","NA","m","18","18","0","0","NA","NA","0","0","NA","18","NA","NA","NA","NA","NA","NA","NA","18","NA","0","NA","18","NA","0","0","NA","0","NA","18","NA","Tue Feb 13 14:57:33 2018","The main experiment item","yes","","Python Experiment.osexp","/Users/johannaschuller/Documents/Uni/Master/Erstes_Semester/Python/Pruefungsleistung","no","mono","no","18","no","black","no","Ok","NA","no","Male","768","psycho","/Users/johannaschuller/Documents/Uni/Master/Erstes_Semester/Python/Pruefungsleistung/subject-2.csv","psycho","Interactive Ising","3.0.7","0","m","NA","NA","NA","NA","space","NA","306.977987289","NA","NA","NA","NA","1591.13097191","NA","NA","NA","2","legacy","Mann","1024","2","48000","-16","experiment","2","even","36656.4991474","36586.135149","12023.1580734","12022.8040218","NA","NA","4030.92002869","12021.8811035","NA","35839.7619724","NA","NA","NA","NA","NA","NA","NA","36965.9321308","NA","NA","NA","36656.2981606","NA","4087.56113052","NA","NA","NA","NA","35819.2801476","NA","Tutorial: Gaze cuing","0","0","0","yes","1024"
"undefined","undefined","undefined","undefined","white","no","0","links","rechts","psycho","psycho","psycho","0","uniform","NA","NA","z","19","19","0","0","NA","NA","0","0","NA","19","NA","NA","NA","NA","NA","NA","NA","19","NA","0","NA","19","NA","0","0","NA","0","NA","19","NA","Tue Feb 13 14:57:33 2018","The main experiment item","yes","","Python Experiment.osexp","/Users/johannaschuller/Documents/Uni/Master/Erstes_Semester/Python/Pruefungsleistung","no","mono","no","18","no","black","no","Ok","NA","no","Male","768","psycho","/Users/johannaschuller/Documents/Uni/Master/Erstes_Semester/Python/Pruefungsleistung/subject-2.csv","psycho","Interactive Ising","3.0.7","0","z","NA","NA","NA","NA","space","NA","276.147842407","NA","NA","NA","NA","1591.13097191","NA","NA","NA","2","legacy","Frau","1024","2","48000","-16","experiment","2","even","37973.2840061","37885.764122","12023.1580734","12022.8040218","NA","NA","4030.92002869","12021.8811035","NA","37140.1090622","NA","NA","NA","NA","NA","NA","NA","38251.8730164","NA","NA","NA","37973.0839729","NA","4087.56113052","NA","NA","NA","NA","37122.4331856","NA","Tutorial: Gaze cuing","0","0","0","yes","1024"
"undefined","undefined","undefined","undefined","white","no","1","rechts","links","psycho","psycho","psycho","0","uniform","NA","NA","m","20","20","0","0","NA","NA","0","0","NA","20","NA","NA","NA","NA","NA","NA","NA","20","NA","0","NA","20","NA","0","0","NA","0","NA","20","NA","Tue Feb 13 14:57:33 2018","The main experiment item","yes","","Python Experiment.osexp","/Users/johannaschuller/Documents/Uni/Master/Erstes_Semester/Python/Pruefungsleistung","no","mono","no","18","no","black","no","Ok","NA","no","Male","768","psycho","/Users/johannaschuller/Documents/Uni/Master/Erstes_Semester/Python/Pruefungsleistung/subject-2.csv","psycho","Interactive Ising","3.0.7","0","m","NA","NA","NA","NA","space","NA","406.470060349","NA","NA","NA","NA","1591.13097191","NA","NA","NA","2","legacy","Mann","1024","2","48000","-16","experiment","2","even","39223.9329815","39153.0950069","12023.1580734","12022.8040218","NA","NA","4030.92002869","12021.8811035","NA","38406.7420959","NA","NA","NA","NA","NA","NA","NA","39632.7810287","NA","NA","NA","39223.7331867","NA","4087.56113052","NA","NA","NA","NA","38400.8100033","NA","Tutorial: Gaze cuing","0","0","0","yes","1024"
"undefined","undefined","undefined","undefined","white","no","0","links","links","psycho","psycho","psycho","0","uniform","NA","NA","z","21","21","0","0","NA","NA","0","0","NA","21","NA","NA","NA","NA","NA","NA","NA","21","NA","0","NA","21","NA","0","0","NA","0","NA","21","NA","Tue Feb 13 14:57:33 2018","The main experiment item","yes","","Python Experiment.osexp","/Users/johannaschuller/Documents/Uni/Master/Erstes_Semester/Python/Pruefungsleistung","no","mono","no","18","no","black","no","Ok","NA","no","Male","768","psycho","/Users/johannaschuller/Documents/Uni/Master/Erstes_Semester/Python/Pruefungsleistung/subject-2.csv","psycho","Interactive Ising","3.0.7","0","z","NA","NA","NA","NA","space","NA","313.456058502","NA","NA","NA","NA","1591.13097191","NA","NA","NA","2","legacy","Frau","1024","2","48000","-16","experiment","2","even","40624.022007","40552.8280735","12023.1580734","12022.8040218","NA","NA","4030.92002869","12021.8811035","NA","39806.6370487","NA","NA","NA","NA","NA","NA","NA","40939.6941662","NA","NA","NA","40623.8210201","NA","4087.56113052","NA","NA","NA","NA","39788.0580425","NA","Tutorial: Gaze cuing","0","0","0","yes","1024"
"undefined","undefined","undefined","undefined","white","no","0","rechts","rechts","psycho","psycho","psycho","0","uniform","NA","NA","z","22","22","0","0","NA","NA","0","0","NA","22","NA","NA","NA","NA","NA","NA","NA","22","NA","0","NA","22","NA","0","0","NA","0","NA","22","NA","Tue Feb 13 14:57:33 2018","The main experiment item","yes","","Python Experiment.osexp","/Users/johannaschuller/Documents/Uni/Master/Erstes_Semester/Python/Pruefungsleistung","no","mono","no","18","no","black","no","Ok","NA","no","Male","768","psycho","/Users/johannaschuller/Documents/Uni/Master/Erstes_Semester/Python/Pruefungsleistung/subject-2.csv","psycho","Interactive Ising","3.0.7","0","z","NA","NA","NA","NA","space","NA","305.637836456","NA","NA","NA","NA","1591.13097191","NA","NA","NA","2","legacy","Frau","1024","2","48000","-16","experiment","2","even","41923.7389565","41853.1069756","12023.1580734","12022.8040218","NA","NA","4030.92002869","12021.8811035","NA","41106.7819595","NA","NA","NA","NA","NA","NA","NA","42231.6551208","NA","NA","NA","41923.5370159","NA","4087.56113052","NA","NA","NA","NA","41092.8940773","NA","Tutorial: Gaze cuing","0","0","0","yes","1024"
"undefined","undefined","undefined","undefined","white","no","1","rechts","links","psycho","psycho","psycho","0","uniform","NA","NA","z","23","23","0","0","NA","NA","0","0","NA","23","NA","NA","NA","NA","NA","NA","NA","23","NA","0","NA","23","NA","0","0","NA","0","NA","23","NA","Tue Feb 13 14:57:33 2018","The main experiment item","yes","","Python Experiment.osexp","/Users/johannaschuller/Documents/Uni/Master/Erstes_Semester/Python/Pruefungsleistung","no","mono","no","18","no","black","no","Ok","NA","no","Male","768","psycho","/Users/johannaschuller/Documents/Uni/Master/Erstes_Semester/Python/Pruefungsleistung/subject-2.csv","psycho","Interactive Ising","3.0.7","0","z","NA","NA","NA","NA","space","NA","290.287017822","NA","NA","NA","NA","1591.13097191","NA","NA","NA","2","legacy","Frau","1024","2","48000","-16","experiment","2","even","43224.0650654","43153.6970139","12023.1580734","12022.8040218","NA","NA","4030.92002869","12021.8811035","NA","42407.7861309","NA","NA","NA","NA","NA","NA","NA","43516.6590214","NA","NA","NA","43223.8650322","NA","4087.56113052","NA","NA","NA","NA","42385.8411312","NA","Tutorial: Gaze cuing","0","0","0","yes","1024"
"undefined","undefined","undefined","undefined","white","no","1","rechts","links","psycho","psycho","psycho","0","uniform","NA","NA","m","24","24","0","0","NA","NA","0","0","NA","24","NA","NA","NA","NA","NA","NA","NA","24","NA","0","NA","24","NA","0","0","NA","0","NA","24","NA","Tue Feb 13 14:57:33 2018","The main experiment item","yes","","Python Experiment.osexp","/Users/johannaschuller/Documents/Uni/Master/Erstes_Semester/Python/Pruefungsleistung","no","mono","no","18","no","black","no","Ok","NA","no","Male","768","psycho","/Users/johannaschuller/Documents/Uni/Master/Erstes_Semester/Python/Pruefungsleistung/subject-2.csv","psycho","Interactive Ising","3.0.7","0","m","NA","NA","NA","NA","space","NA","296.424150467","NA","NA","NA","NA","1591.13097191","NA","NA","NA","2","legacy","Mann","1024","2","48000","-16","experiment","2","even","44507.8911781","44436.9180202","12023.1580734","12022.8040218","NA","NA","4030.92002869","12021.8811035","NA","43690.538168","NA","NA","NA","NA","NA","NA","NA","44806.6811562","NA","NA","NA","44507.6930523","NA","4087.56113052","NA","NA","NA","NA","43672.9040146","NA","Tutorial: Gaze cuing","0","0","0","yes","1024"
"undefined","undefined","undefined","undefined","white","no","0","links","rechts","psycho","psycho","psycho","0","uniform","NA","NA","m","25","25","0","0","NA","NA","0","0","NA","25","NA","NA","NA","NA","NA","NA","NA","25","NA","0","NA","25","NA","0","0","NA","0","NA","25","NA","Tue Feb 13 14:57:33 2018","The main experiment item","yes","","Python Experiment.osexp","/Users/johannaschuller/Documents/Uni/Master/Erstes_Semester/Python/Pruefungsleistung","no","mono","no","18","no","black","no","Ok","NA","no","Male","768","psycho","/Users/johannaschuller/Documents/Uni/Master/Erstes_Semester/Python/Pruefungsleistung/subject-2.csv","psycho","Interactive Ising","3.0.7","0","m","NA","NA","NA","NA","space","NA","325.706005096","NA","NA","NA","NA","1591.13097191","NA","NA","NA","2","legacy","Mann","1024","2","48000","-16","experiment","2","even","45791.5630341","45719.5589542","12023.1580734","12022.8040218","NA","NA","4030.92002869","12021.8811035","NA","44973.9441872","NA","NA","NA","NA","NA","NA","NA","46119.5590496","NA","NA","NA","45791.3630009","NA","4087.56113052","NA","NA","NA","NA","44955.2969933","NA","Tutorial: Gaze cuing","0","0","0","yes","1024"
"undefined","undefined","undefined","undefined","white","no","1","rechts","links","psycho","psycho","psycho","0","uniform","NA","NA","m","26","26","0","0","NA","NA","0","0","NA","26","NA","NA","NA","NA","NA","NA","NA","26","NA","0","NA","26","NA","0","0","NA","0","NA","26","NA","Tue Feb 13 14:57:33 2018","The main experiment item","yes","","Python Experiment.osexp","/Users/johannaschuller/Documents/Uni/Master/Erstes_Semester/Python/Pruefungsleistung","no","mono","no","18","no","black","no","Ok","NA","no","Male","768","psycho","/Users/johannaschuller/Documents/Uni/Master/Erstes_Semester/Python/Pruefungsleistung/subject-2.csv","psycho","Interactive Ising","3.0.7","0","m","NA","NA","NA","NA","space","NA","340.523958206","NA","NA","NA","NA","1591.13097191","NA","NA","NA","2","legacy","Mann","1024","2","48000","-16","experiment","2","even","47090.7690525","47019.6890831","12023.1580734","12022.8040218","NA","NA","4030.92002869","12021.8811035","NA","46274.0981579","NA","NA","NA","NA","NA","NA","NA","47433.494091","NA","NA","NA","47090.5690193","NA","4087.56113052","NA","NA","NA","NA","46265.1410103","NA","Tutorial: Gaze cuing","0","0","0","yes","1024"
"undefined","undefined","undefined","undefined","white","no","0","rechts","rechts","psycho","psycho","psycho","0","uniform","NA","NA","m","27","27","0","0","NA","NA","0","0","NA","27","NA","NA","NA","NA","NA","NA","NA","27","NA","0","NA","27","NA","0","0","NA","0","NA","27","NA","Tue Feb 13 14:57:33 2018","The main experiment item","yes","","Python Experiment.osexp","/Users/johannaschuller/Documents/Uni/Master/Erstes_Semester/Python/Pruefungsleistung","no","mono","no","18","no","black","no","Ok","NA","no","Male","768","psycho","/Users/johannaschuller/Documents/Uni/Master/Erstes_Semester/Python/Pruefungsleistung/subject-2.csv","psycho","Interactive Ising","3.0.7","0","m","NA","NA","NA","NA","space","NA","511.959075928","NA","NA","NA","NA","1591.13097191","NA","NA","NA","2","legacy","Mann","1024","2","48000","-16","experiment","2","even","48408.2169533","48337.0511532","12023.1580734","12022.8040218","NA","NA","4030.92002869","12021.8811035","NA","47590.6431675","NA","NA","NA","NA","NA","NA","NA","48922.6610661","NA","NA","NA","48408.0171585","NA","4087.56113052","NA","NA","NA","NA","47585.1101875","NA","Tutorial: Gaze cuing","0","0","0","yes","1024"
"undefined","undefined","undefined","undefined","white","no","0","links","rechts","psycho","psycho","psycho","0","uniform","NA","NA","z","28","28","0","0","NA","NA","0","0","NA","28","NA","NA","NA","NA","NA","NA","NA","28","NA","0","NA","28","NA","0","0","NA","0","NA","28","NA","Tue Feb 13 14:57:33 2018","The main experiment item","yes","","Python Experiment.osexp","/Users/johannaschuller/Documents/Uni/Master/Erstes_Semester/Python/Pruefungsleistung","no","mono","no","18","no","black","no","Ok","NA","no","Male","768","psycho","/Users/johannaschuller/Documents/Uni/Master/Erstes_Semester/Python/Pruefungsleistung/subject-2.csv","psycho","Interactive Ising","3.0.7","0","z","NA","NA","NA","NA","space","NA","273.249864578","NA","NA","NA","NA","1591.13097191","NA","NA","NA","2","legacy","Frau","1024","2","48000","-16","experiment","2","even","49924.9970913","49853.1560898","12023.1580734","12022.8040218","NA","NA","4030.92002869","12021.8811035","NA","49107.7990532","NA","NA","NA","NA","NA","NA","NA","50200.5879879","NA","NA","NA","49924.7970581","NA","4087.56113052","NA","NA","NA","NA","49087.4290466","NA","Tutorial: Gaze cuing","0","0","0","yes","1024"
"undefined","undefined","undefined","undefined","white","no","0","rechts","rechts","psycho","psycho","psycho","0","uniform","NA","NA","m","29","29","0","0","NA","NA","0","0","NA","29","NA","NA","NA","NA","NA","NA","NA","29","NA","0","NA","29","NA","0","0","NA","0","NA","29","NA","Tue Feb 13 14:57:33 2018","The main experiment item","yes","","Python Experiment.osexp","/Users/johannaschuller/Documents/Uni/Master/Erstes_Semester/Python/Pruefungsleistung","no","mono","no","18","no","black","no","Ok","NA","no","Male","768","psycho","/Users/johannaschuller/Documents/Uni/Master/Erstes_Semester/Python/Pruefungsleistung/subject-2.csv","psycho","Interactive Ising","3.0.7","0","z","NA","NA","NA","NA","space","NA","275.385141373","NA","NA","NA","NA","1591.13097191","NA","NA","NA","2","legacy","Mann","1024","2","48000","-16","experiment","2","even","51191.601038","51120.8891869","12023.1580734","12022.8040218","NA","NA","4030.92002869","12021.8811035","NA","50375.2651215","NA","NA","NA","NA","NA","NA","NA","51469.3570137","NA","NA","NA","51191.4019585","NA","4087.56113052","NA","NA","NA","NA","50367.6791191","NA","Tutorial: Gaze cuing","0","0","0","yes","1024"
"undefined","undefined","undefined","undefined","white","no","1","rechts","links","psycho","psycho","psycho","0","uniform","NA","NA","m","30","30","0","0","NA","NA","0","0","NA","30","NA","NA","NA","NA","NA","NA","NA","30","NA","0","NA","30","NA","0","0","NA","0","NA","30","NA","Tue Feb 13 14:57:33 2018","The main experiment item","yes","","Python Experiment.osexp","/Users/johannaschuller/Documents/Uni/Master/Erstes_Semester/Python/Pruefungsleistung","no","mono","no","18","no","black","no","Ok","NA","no","Male","768","psycho","/Users/johannaschuller/Documents/Uni/Master/Erstes_Semester/Python/Pruefungsleistung/subject-2.csv","psycho","Interactive Ising","3.0.7","0","m","NA","NA","NA","NA","space","NA","313.848018646","NA","NA","NA","NA","1591.13097191","NA","NA","NA","2","legacy","Mann","1024","2","48000","-16","experiment","2","even","52458.1880569","52387.6481056","12023.1580734","12022.8040218","NA","NA","4030.92002869","12021.8811035","NA","51641.3111687","NA","NA","NA","NA","NA","NA","NA","52774.3580341","NA","NA","NA","52457.9930305","NA","4087.56113052","NA","NA","NA","NA","51632.6291561","NA","Tutorial: Gaze cuing","0","0","0","yes","1024"
"undefined","undefined","undefined","undefined","white","no","0","links","rechts","psycho","psycho","psycho","0","uniform","NA","NA","m","31","31","0","0","NA","NA","0","0","NA","31","NA","NA","NA","NA","NA","NA","NA","31","NA","0","NA","31","NA","0","0","NA","0","NA","31","NA","Tue Feb 13 14:57:33 2018","The main experiment item","yes","","Python Experiment.osexp","/Users/johannaschuller/Documents/Uni/Master/Erstes_Semester/Python/Pruefungsleistung","no","mono","no","18","no","black","no","Ok","NA","no","Male","768","psycho","/Users/johannaschuller/Documents/Uni/Master/Erstes_Semester/Python/Pruefungsleistung/subject-2.csv","psycho","Interactive Ising","3.0.7","0","m","NA","NA","NA","NA","space","NA","244.249105453","NA","NA","NA","NA","1591.13097191","NA","NA","NA","2","legacy","Mann","1024","2","48000","-16","experiment","2","even","53758.6419582","53688.1301403","12023.1580734","12022.8040218","NA","NA","4030.92002869","12021.8811035","NA","52941.7929649","NA","NA","NA","NA","NA","NA","NA","54005.3739548","NA","NA","NA","53758.4359646","NA","4087.56113052","NA","NA","NA","NA","52921.1981297","NA","Tutorial: Gaze cuing","0","0","0","yes","1024"
"undefined","undefined","undefined","undefined","white","no","0","rechts","rechts","psycho","psycho","psycho","0","uniform","NA","NA","z","32","32","1","1","NA","NA","0","0","NA","32","NA","NA","NA","NA","NA","NA","NA","32","NA","0","NA","32","NA","0","0","NA","1","NA","32","NA","Tue Feb 13 14:57:33 2018","The main experiment item","yes","","Python Experiment.osexp","/Users/johannaschuller/Documents/Uni/Master/Erstes_Semester/Python/Pruefungsleistung","no","mono","no","18","no","black","no","Ok","NA","no","Male","768","psycho","/Users/johannaschuller/Documents/Uni/Master/Erstes_Semester/Python/Pruefungsleistung/subject-2.csv","psycho","Interactive Ising","3.0.7","0","z","NA","NA","NA","NA","space","NA","285.290002823","NA","NA","NA","NA","1591.13097191","NA","NA","NA","2","legacy","Frau","1024","2","48000","-16","experiment","2","even","54991.6610718","54921.0679531","54016.7460442","54016.2801743","NA","NA","4030.92002869","12021.8811035","NA","54174.6530533","NA","NA","NA","NA","NA","NA","NA","55279.3090343","NA","NA","NA","54991.4631844","NA","4087.56113052","NA","NA","NA","NA","54157.2589874","NA","Tutorial: Gaze cuing","0","0","0","yes","1024"
"undefined","undefined","undefined","undefined","white","no","0","links","rechts","psycho","psycho","psycho","0","uniform","NA","NA","z","33","33","1","1","NA","NA","0","0","NA","33","NA","NA","NA","NA","NA","NA","NA","33","NA","0","NA","33","NA","0","0","NA","1","NA","33","NA","Tue Feb 13 14:57:33 2018","The main experiment item","yes","","Python Experiment.osexp","/Users/johannaschuller/Documents/Uni/Master/Erstes_Semester/Python/Pruefungsleistung","no","mono","no","18","no","black","no","Ok","NA","no","Male","768","psycho","/Users/johannaschuller/Documents/Uni/Master/Erstes_Semester/Python/Pruefungsleistung/subject-2.csv","psycho","Interactive Ising","3.0.7","0","z","NA","NA","NA","NA","space","NA","324.553966522","NA","NA","NA","NA","1591.13097191","NA","NA","NA","2","legacy","Frau","1024","2","48000","-16","experiment","2","even","56259.4411373","56188.4479523","54016.7460442","54016.2801743","NA","NA","4030.92002869","12021.8811035","NA","55442.0721531","NA","NA","NA","NA","NA","NA","NA","56586.3449574","NA","NA","NA","56259.2401505","NA","4087.56113052","NA","NA","NA","NA","55425.6660938","NA","Tutorial: Gaze cuing","0","0","0","yes","1024"
"undefined","undefined","undefined","undefined","white","no","0","links","links","psycho","psycho","psycho","0","uniform","NA","NA","m","34","34","1","1","NA","NA","0","0","NA","34","NA","NA","NA","NA","NA","NA","NA","34","NA","0","NA","34","NA","0","0","NA","1","NA","34","NA","Tue Feb 13 14:57:33 2018","The main experiment item","yes","","Python Experiment.osexp","/Users/johannaschuller/Documents/Uni/Master/Erstes_Semester/Python/Pruefungsleistung","no","mono","no","18","no","black","no","Ok","NA","no","Male","768","psycho","/Users/johannaschuller/Documents/Uni/Master/Erstes_Semester/Python/Pruefungsleistung/subject-2.csv","psycho","Interactive Ising","3.0.7","0","m","NA","NA","NA","NA","space","NA","262.26401329","NA","NA","NA","NA","1591.13097191","NA","NA","NA","2","legacy","Mann","1024","2","48000","-16","experiment","2","even","57575.7000446","57504.4791698","54016.7460442","54016.2801743","NA","NA","4030.92002869","12021.8811035","NA","56759.1149807","NA","NA","NA","NA","NA","NA","NA","57840.3830528","NA","NA","NA","57575.5009651","NA","4087.56113052","NA","NA","NA","NA","56737.6630306","NA","Tutorial: Gaze cuing","0","0","0","yes","1024"
"undefined","undefined","undefined","undefined","white","no","1","rechts","links","psycho","psycho","psycho","0","uniform","NA","NA","m","35","35","1","1","NA","NA","0","0","NA","35","NA","NA","NA","NA","NA","NA","NA","35","NA","0","NA","35","NA","0","0","NA","1","NA","35","NA","Tue Feb 13 14:57:33 2018","The main experiment item","yes","","Python Experiment.osexp","/Users/johannaschuller/Documents/Uni/Master/Erstes_Semester/Python/Pruefungsleistung","no","mono","no","18","no","black","no","Ok","NA","no","Male","768","psycho","/Users/johannaschuller/Documents/Uni/Master/Erstes_Semester/Python/Pruefungsleistung/subject-2.csv","psycho","Interactive Ising","3.0.7","0","z","NA","NA","NA","NA","space","NA","373.065948486","NA","NA","NA","NA","1591.13097191","NA","NA","NA","2","legacy","Mann","1024","2","48000","-16","experiment","2","even","58825.701952","58755.2051544","54016.7460442","54016.2801743","NA","NA","4030.92002869","12021.8811035","NA","58008.7871552","NA","NA","NA","NA","NA","NA","NA","59201.0660172","NA","NA","NA","58825.5050182","NA","4087.56113052","NA","NA","NA","NA","57997.2200394","NA","Tutorial: Gaze cuing","0","0","0","yes","1024"
"undefined","undefined","undefined","undefined","white","no","0","links","links","psycho","psycho","psycho","0","uniform","NA","NA","z","36","36","1","1","NA","NA","0","0","NA","36","NA","NA","NA","NA","NA","NA","NA","36","NA","0","NA","36","NA","0","0","NA","1","NA","36","NA","Tue Feb 13 14:57:33 2018","The main experiment item","yes","","Python Experiment.osexp","/Users/johannaschuller/Documents/Uni/Master/Erstes_Semester/Python/Pruefungsleistung","no","mono","no","18","no","black","no","Ok","NA","no","Male","768","psycho","/Users/johannaschuller/Documents/Uni/Master/Erstes_Semester/Python/Pruefungsleistung/subject-2.csv","psycho","Interactive Ising","3.0.7","0","z","NA","NA","NA","NA","space","NA","294.852018356","NA","NA","NA","NA","1591.13097191","NA","NA","NA","2","legacy","Frau","1024","2","48000","-16","experiment","2","even","60176.0220528","60105.0519943","54016.7460442","54016.2801743","NA","NA","4030.92002869","12021.8811035","NA","59359.6291542","NA","NA","NA","NA","NA","NA","NA","60473.2761383","NA","NA","NA","60175.8241653","NA","4087.56113052","NA","NA","NA","NA","59347.260952","NA","Tutorial: Gaze cuing","0","0","0","yes","1024"
"undefined","undefined","undefined","undefined","white","no","1","rechts","links","psycho","psycho","psycho","0","uniform","NA","NA","z","37","37","1","1","NA","NA","0","0","NA","37","NA","NA","NA","NA","NA","NA","NA","37","NA","0","NA","37","NA","0","0","NA","1","NA","37","NA","Tue Feb 13 14:57:33 2018","The main experiment item","yes","","Python Experiment.osexp","/Users/johannaschuller/Documents/Uni/Master/Erstes_Semester/Python/Pruefungsleistung","no","mono","no","18","no","black","no","Ok","NA","no","Male","768","psycho","/Users/johannaschuller/Documents/Uni/Master/Erstes_Semester/Python/Pruefungsleistung/subject-2.csv","psycho","Interactive Ising","3.0.7","0","z","NA","NA","NA","NA","space","NA","336.244821548","NA","NA","NA","NA","1591.13097191","NA","NA","NA","2","legacy","Frau","1024","2","48000","-16","experiment","2","even","61459.4841003","61389.4610405","54016.7460442","54016.2801743","NA","NA","4030.92002869","12021.8811035","NA","60643.0461407","NA","NA","NA","NA","NA","NA","NA","61798.1200218","NA","NA","NA","61459.2850208","NA","4087.56113052","NA","NA","NA","NA","60630.685091","NA","Tutorial: Gaze cuing","0","0","0","yes","1024"
"undefined","undefined","undefined","undefined","white","no","1","rechts","links","psycho","psycho","psycho","0","uniform","NA","NA","z","38","38","1","1","NA","NA","0","0","NA","38","NA","NA","NA","NA","NA","NA","NA","38","NA","0","NA","38","NA","0","0","NA","1","NA","38","NA","Tue Feb 13 14:57:33 2018","The main experiment item","yes","","Python Experiment.osexp","/Users/johannaschuller/Documents/Uni/Master/Erstes_Semester/Python/Pruefungsleistung","no","mono","no","18","no","black","no","Ok","NA","no","Male","768","psycho","/Users/johannaschuller/Documents/Uni/Master/Erstes_Semester/Python/Pruefungsleistung/subject-2.csv","psycho","Interactive Ising","3.0.7","0","z","NA","NA","NA","NA","space","NA","314.661026001","NA","NA","NA","NA","1591.13097191","NA","NA","NA","2","legacy","Frau","1024","2","48000","-16","experiment","2","even","62809.2091084","62722.1679688","54016.7460442","54016.2801743","NA","NA","4030.92002869","12021.8811035","NA","61975.7399559","NA","NA","NA","NA","NA","NA","NA","63126.1441708","NA","NA","NA","62809.0109825","NA","4087.56113052","NA","NA","NA","NA","61954.0541172","NA","Tutorial: Gaze cuing","0","0","0","yes","1024"
"undefined","undefined","undefined","undefined","white","no","0","links","rechts","psycho","psycho","psycho","0","uniform","NA","NA","z","39","39","1","1","NA","NA","0","0","NA","39","NA","NA","NA","NA","NA","NA","NA","39","NA","0","NA","39","NA","0","0","NA","1","NA","39","NA","Tue Feb 13 14:57:33 2018","The main experiment item","yes","","Python Experiment.osexp","/Users/johannaschuller/Documents/Uni/Master/Erstes_Semester/Python/Pruefungsleistung","no","mono","no","18","no","black","no","Ok","NA","no","Male","768","psycho","/Users/johannaschuller/Documents/Uni/Master/Erstes_Semester/Python/Pruefungsleistung/subject-2.csv","psycho","Interactive Ising","3.0.7","0","z","NA","NA","NA","NA","space","NA","321.197986603","NA","NA","NA","NA","1591.13097191","NA","NA","NA","2","legacy","Frau","1024","2","48000","-16","experiment","2","even","64109.609127","64039.2391682","54016.7460442","54016.2801743","NA","NA","4030.92002869","12021.8811035","NA","63292.8590775","NA","NA","NA","NA","NA","NA","NA","64433.2621098","NA","NA","NA","64109.4090939","NA","4087.56113052","NA","NA","NA","NA","63279.4489861","NA","Tutorial: Gaze cuing","0","0","0","yes","1024"
"undefined","undefined","undefined","undefined","white","no","0","links","links","psycho","psycho","psycho","0","uniform","NA","NA","z","40","40","1","1","NA","NA","0","0","NA","40","NA","NA","NA","NA","NA","NA","NA","40","NA","0","NA","40","NA","0","0","NA","1","NA","40","NA","Tue Feb 13 14:57:33 2018","The main experiment item","yes","","Python Experiment.osexp","/Users/johannaschuller/Documents/Uni/Master/Erstes_Semester/Python/Pruefungsleistung","no","mono","no","18","no","black","no","Ok","NA","no","Male","768","psycho","/Users/johannaschuller/Documents/Uni/Master/Erstes_Semester/Python/Pruefungsleistung/subject-2.csv","psycho","Interactive Ising","3.0.7","0","z","NA","NA","NA","NA","space","NA","353.621959686","NA","NA","NA","NA","1591.13097191","NA","NA","NA","2","legacy","Frau","1024","2","48000","-16","experiment","2","even","65426.2280464","65356.2581539","54016.7460442","54016.2801743","NA","NA","4030.92002869","12021.8811035","NA","64609.8670959","NA","NA","NA","NA","NA","NA","NA","65782.3441029","NA","NA","NA","65426.0311127","NA","4087.56113052","NA","NA","NA","NA","64588.3350372","NA","Tutorial: Gaze cuing","0","0","0","yes","1024"
"undefined","undefined","undefined","undefined","white","no","1","rechts","links","psycho","psycho","psycho","0","uniform","NA","NA","z","41","41","1","1","NA","NA","0","0","NA","41","NA","NA","NA","NA","NA","NA","NA","41","NA","0","NA","41","NA","0","0","NA","1","NA","41","NA","Tue Feb 13 14:57:33 2018","The main experiment item","yes","","Python Experiment.osexp","/Users/johannaschuller/Documents/Uni/Master/Erstes_Semester/Python/Pruefungsleistung","no","mono","no","18","no","black","no","Ok","NA","no","Male","768","psycho","/Users/johannaschuller/Documents/Uni/Master/Erstes_Semester/Python/Pruefungsleistung/subject-2.csv","psycho","Interactive Ising","3.0.7","0","z","NA","NA","NA","NA","space","NA","238.891124725","NA","NA","NA","NA","1591.13097191","NA","NA","NA","2","legacy","Frau","1024","2","48000","-16","experiment","2","even","66776.7021656","66705.5630684","54016.7460442","54016.2801743","NA","NA","4030.92002869","12021.8811035","NA","65959.1801167","NA","NA","NA","NA","NA","NA","NA","67018.1131363","NA","NA","NA","66776.5040398","NA","4087.56113052","NA","NA","NA","NA","65944.0100193","NA","Tutorial: Gaze cuing","0","0","0","yes","1024"
"undefined","undefined","undefined","undefined","white","no","0","rechts","rechts","psycho","psycho","psycho","0","uniform","NA","NA","m","42","42","1","1","NA","NA","0","0","NA","42","NA","NA","NA","NA","NA","NA","NA","42","NA","0","NA","42","NA","0","0","NA","1","NA","42","NA","Tue Feb 13 14:57:33 2018","The main experiment item","yes","","Python Experiment.osexp","/Users/johannaschuller/Documents/Uni/Master/Erstes_Semester/Python/Pruefungsleistung","no","mono","no","18","no","black","no","Ok","NA","no","Male","768","psycho","/Users/johannaschuller/Documents/Uni/Master/Erstes_Semester/Python/Pruefungsleistung/subject-2.csv","psycho","Interactive Ising","3.0.7","0","m","NA","NA","NA","NA","space","NA","308.351993561","NA","NA","NA","NA","1591.13097191","NA","NA","NA","2","legacy","Mann","1024","2","48000","-16","experiment","2","even","68010.3700161","67939.6419525","54016.7460442","54016.2801743","NA","NA","4030.92002869","12021.8811035","NA","67193.2191849","NA","NA","NA","NA","NA","NA","NA","68321.1350441","NA","NA","NA","68010.1699829","NA","4087.56113052","NA","NA","NA","NA","67171.3149548","NA","Tutorial: Gaze cuing","0","0","0","yes","1024"
"undefined","undefined","undefined","undefined","white","no","0","links","rechts","psycho","psycho","psycho","0","uniform","NA","NA","m","43","43","1","1","NA","NA","0","0","NA","43","NA","NA","NA","NA","NA","NA","NA","43","NA","0","NA","43","NA","0","0","NA","1","NA","43","NA","Tue Feb 13 14:57:33 2018","The main experiment item","yes","","Python Experiment.osexp","/Users/johannaschuller/Documents/Uni/Master/Erstes_Semester/Python/Pruefungsleistung","no","mono","no","18","no","black","no","Ok","NA","no","Male","768","psycho","/Users/johannaschuller/Documents/Uni/Master/Erstes_Semester/Python/Pruefungsleistung/subject-2.csv","psycho","Interactive Ising","3.0.7","0","m","NA","NA","NA","NA","space","NA","261.14988327","NA","NA","NA","NA","1591.13097191","NA","NA","NA","2","legacy","Mann","1024","2","48000","-16","experiment","2","even","69293.5121059","69223.3481407","54016.7460442","54016.2801743","NA","NA","4030.92002869","12021.8811035","NA","68477.0720005","NA","NA","NA","NA","NA","NA","NA","69557.0001602","NA","NA","NA","69293.3151722","NA","4087.56113052","NA","NA","NA","NA","68468.1620598","NA","Tutorial: Gaze cuing","0","0","0","yes","1024"
"undefined","undefined","undefined","undefined","white","no","0","rechts","rechts","psycho","psycho","psycho","0","uniform","NA","NA","z","44","44","1","1","NA","NA","0","0","NA","44","NA","NA","NA","NA","NA","NA","NA","44","NA","0","NA","44","NA","0","0","NA","1","NA","44","NA","Tue Feb 13 14:57:33 2018","The main experiment item","yes","","Python Experiment.osexp","/Users/johannaschuller/Documents/Uni/Master/Erstes_Semester/Python/Pruefungsleistung","no","mono","no","18","no","black","no","Ok","NA","no","Male","768","psycho","/Users/johannaschuller/Documents/Uni/Master/Erstes_Semester/Python/Pruefungsleistung/subject-2.csv","psycho","Interactive Ising","3.0.7","0","z","NA","NA","NA","NA","space","NA","319.274187088","NA","NA","NA","NA","1591.13097191","NA","NA","NA","2","legacy","Frau","1024","2","48000","-16","experiment","2","even","70543.5621738","70472.9001522","54016.7460442","54016.2801743","NA","NA","4030.92002869","12021.8811035","NA","69727.0810604","NA","NA","NA","NA","NA","NA","NA","70865.4611111","NA","NA","NA","70543.3630943","NA","4087.56113052","NA","NA","NA","NA","69705.6350708","NA","Tutorial: Gaze cuing","0","0","0","yes","1024"
"undefined","undefined","undefined","undefined","white","no","1","rechts","links","psycho","psycho","psycho","0","uniform","NA","NA","m","45","45","1","1","NA","NA","0","0","NA","45","NA","NA","NA","NA","NA","NA","NA","45","NA","0","NA","45","NA","0","0","NA","1","NA","45","NA","Tue Feb 13 14:57:33 2018","The main experiment item","yes","","Python Experiment.osexp","/Users/johannaschuller/Documents/Uni/Master/Erstes_Semester/Python/Pruefungsleistung","no","mono","no","18","no","black","no","Ok","NA","no","Male","768","psycho","/Users/johannaschuller/Documents/Uni/Master/Erstes_Semester/Python/Pruefungsleistung/subject-2.csv","psycho","Interactive Ising","3.0.7","0","m","NA","NA","NA","NA","space","NA","346.867084503","NA","NA","NA","NA","1591.13097191","NA","NA","NA","2","legacy","Mann","1024","2","48000","-16","experiment","2","even","71843.5621262","71773.3030319","54016.7460442","54016.2801743","NA","NA","4030.92002869","12021.8811035","NA","71027.2669792","NA","NA","NA","NA","NA","NA","NA","72192.7990913","NA","NA","NA","71843.3630466","NA","4087.56113052","NA","NA","NA","NA","71018.4311867","NA","Tutorial: Gaze cuing","0","0","0","yes","1024"
"undefined","undefined","undefined","undefined","white","no","0","rechts","rechts","psycho","psycho","psycho","0","uniform","NA","NA","z","46","46","1","1","NA","NA","0","0","NA","46","NA","NA","NA","NA","NA","NA","NA","46","NA","0","NA","46","NA","0","0","NA","1","NA","46","NA","Tue Feb 13 14:57:33 2018","The main experiment item","yes","","Python Experiment.osexp","/Users/johannaschuller/Documents/Uni/Master/Erstes_Semester/Python/Pruefungsleistung","no","mono","no","18","no","black","no","Ok","NA","no","Male","768","psycho","/Users/johannaschuller/Documents/Uni/Master/Erstes_Semester/Python/Pruefungsleistung/subject-2.csv","psycho","Interactive Ising","3.0.7","0","m","NA","NA","NA","NA","space","NA","347.370147705","NA","NA","NA","NA","1591.13097191","NA","NA","NA","2","legacy","Frau","1024","2","48000","-16","experiment","2","even","73177.241087","73106.2381268","54016.7460442","54016.2801743","NA","NA","4030.92002869","12021.8811035","NA","72359.8480225","NA","NA","NA","NA","NA","NA","NA","73526.8580914","NA","NA","NA","73177.0429611","NA","4087.56113052","NA","NA","NA","NA","72346.5390205","NA","Tutorial: Gaze cuing","0","0","0","yes","1024"
"undefined","undefined","undefined","undefined","white","no","0","links","rechts","psycho","psycho","psycho","0","uniform","NA","NA","m","47","47","1","1","NA","NA","0","0","NA","47","NA","NA","NA","NA","NA","NA","NA","47","NA","0","NA","47","NA","0","0","NA","1","NA","47","NA","Tue Feb 13 14:57:33 2018","The main experiment item","yes","","Python Experiment.osexp","/Users/johannaschuller/Documents/Uni/Master/Erstes_Semester/Python/Pruefungsleistung","no","mono","no","18","no","black","no","Ok","NA","no","Male","768","psycho","/Users/johannaschuller/Documents/Uni/Master/Erstes_Semester/Python/Pruefungsleistung/subject-2.csv","psycho","Interactive Ising","3.0.7","0","z","NA","NA","NA","NA","space","NA","259.378910065","NA","NA","NA","NA","1591.13097191","NA","NA","NA","2","legacy","Mann","1024","2","48000","-16","experiment","2","even","74510.9741688","74440.0291443","54016.7460442","54016.2801743","NA","NA","4030.92002869","12021.8811035","NA","73693.677187","NA","NA","NA","NA","NA","NA","NA","74772.7861404","NA","NA","NA","74510.7731819","NA","4087.56113052","NA","NA","NA","NA","73672.9199886","NA","Tutorial: Gaze cuing","0","0","0","yes","1024"
"undefined","undefined","undefined","undefined","white","no","0","links","links","psycho","psycho","psycho","0","uniform","NA","NA","m","48","48","1","1","NA","NA","0","0","NA","48","NA","NA","NA","NA","NA","NA","NA","48","NA","0","NA","48","NA","0","0","NA","1","NA","48","NA","Tue Feb 13 14:57:33 2018","The main experiment item","yes","","Python Experiment.osexp","/Users/johannaschuller/Documents/Uni/Master/Erstes_Semester/Python/Pruefungsleistung","no","mono","no","18","no","black","no","Ok","NA","no","Male","768","psycho","/Users/johannaschuller/Documents/Uni/Master/Erstes_Semester/Python/Pruefungsleistung/subject-2.csv","psycho","Interactive Ising","3.0.7","0","m","NA","NA","NA","NA","space","NA","300.533056259","NA","NA","NA","NA","1591.13097191","NA","NA","NA","2","legacy","Mann","1024","2","48000","-16","experiment","2","even","75760.9550953","75689.8050308","54016.7460442","54016.2801743","NA","NA","4030.92002869","12021.8811035","NA","74943.4370995","NA","NA","NA","NA","NA","NA","NA","76063.7421608","NA","NA","NA","75760.7531548","NA","4087.56113052","NA","NA","NA","NA","74926.803112","NA","Tutorial: Gaze cuing","0","0","0","yes","1024"
"undefined","undefined","undefined","undefined","white","no","0","links","rechts","psycho","psycho","psycho","0","uniform","NA","NA","z","49","49","1","1","NA","NA","0","0","NA","49","NA","NA","NA","NA","NA","NA","NA","49","NA","0","NA","49","NA","0","0","NA","1","NA","49","NA","Tue Feb 13 14:57:33 2018","The main experiment item","yes","","Python Experiment.osexp","/Users/johannaschuller/Documents/Uni/Master/Erstes_Semester/Python/Pruefungsleistung","no","mono","no","18","no","black","no","Ok","NA","no","Male","768","psycho","/Users/johannaschuller/Documents/Uni/Master/Erstes_Semester/Python/Pruefungsleistung/subject-2.csv","psycho","Interactive Ising","3.0.7","0","z","NA","NA","NA","NA","space","NA","424.051046371","NA","NA","NA","NA","1591.13097191","NA","NA","NA","2","legacy","Frau","1024","2","48000","-16","experiment","2","even","77061.3260269","76974.2729664","54016.7460442","54016.2801743","NA","NA","4030.92002869","12021.8811035","NA","76227.8499603","NA","NA","NA","NA","NA","NA","NA","77487.9519939","NA","NA","NA","77061.1271858","NA","4087.56113052","NA","NA","NA","NA","76216.0401344","NA","Tutorial: Gaze cuing","0","0","0","yes","1024"
"undefined","undefined","undefined","undefined","white","no","0","links","links","psycho","psycho","psycho","0","uniform","NA","NA","m","50","50","1","1","NA","NA","0","0","NA","50","NA","NA","NA","NA","NA","NA","NA","50","NA","0","NA","50","NA","0","0","NA","1","NA","50","NA","Tue Feb 13 14:57:33 2018","The main experiment item","yes","","Python Experiment.osexp","/Users/johannaschuller/Documents/Uni/Master/Erstes_Semester/Python/Pruefungsleistung","no","mono","no","18","no","black","no","Ok","NA","no","Male","768","psycho","/Users/johannaschuller/Documents/Uni/Master/Erstes_Semester/Python/Pruefungsleistung/subject-2.csv","psycho","Interactive Ising","3.0.7","0","m","NA","NA","NA","NA","space","NA","382.652044296","NA","NA","NA","NA","1591.13097191","NA","NA","NA","2","legacy","Mann","1024","2","48000","-16","experiment","2","even","78477.8490067","78407.047987","54016.7460442","54016.2801743","NA","NA","4030.92002869","12021.8811035","NA","77660.6340408","NA","NA","NA","NA","NA","NA","NA","78862.8239632","NA","NA","NA","78477.6489735","NA","4087.56113052","NA","NA","NA","NA","77641.379118","NA","Tutorial: Gaze cuing","0","0","0","yes","1024"
"undefined","undefined","undefined","undefined","white","no","1","rechts","links","psycho","psycho","psycho","0","uniform","NA","NA","m","51","51","1","1","NA","NA","0","0","NA","51","NA","NA","NA","NA","NA","NA","NA","51","NA","0","NA","51","NA","0","0","NA","1","NA","51","NA","Tue Feb 13 14:57:33 2018","The main experiment item","yes","","Python Experiment.osexp","/Users/johannaschuller/Documents/Uni/Master/Erstes_Semester/Python/Pruefungsleistung","no","mono","no","18","no","black","no","Ok","NA","no","Male","768","psycho","/Users/johannaschuller/Documents/Uni/Master/Erstes_Semester/Python/Pruefungsleistung/subject-2.csv","psycho","Interactive Ising","3.0.7","0","m","NA","NA","NA","NA","space","NA","345.827102661","NA","NA","NA","NA","1591.13097191","NA","NA","NA","2","legacy","Mann","1024","2","48000","-16","experiment","2","even","79846.5139866","79772.7890015","54016.7460442","54016.2801743","NA","NA","4030.92002869","12021.8811035","NA","79027.0349979","NA","NA","NA","NA","NA","NA","NA","80194.7419643","NA","NA","NA","79846.3129997","NA","4087.56113052","NA","NA","NA","NA","79012.7811432","NA","Tutorial: Gaze cuing","0","0","0","yes","1024"
"undefined","undefined","undefined","undefined","white","no","0","links","links","psycho","psycho","psycho","0","uniform","NA","NA","z","52","52","1","1","NA","NA","0","0","NA","52","NA","NA","NA","NA","NA","NA","NA","52","NA","0","NA","52","NA","0","0","NA","1","NA","52","NA","Tue Feb 13 14:57:33 2018","The main experiment item","yes","","Python Experiment.osexp","/Users/johannaschuller/Documents/Uni/Master/Erstes_Semester/Python/Pruefungsleistung","no","mono","no","18","no","black","no","Ok","NA","no","Male","768","psycho","/Users/johannaschuller/Documents/Uni/Master/Erstes_Semester/Python/Pruefungsleistung/subject-2.csv","psycho","Interactive Ising","3.0.7","0","z","NA","NA","NA","NA","space","NA","346.00186348","NA","NA","NA","NA","1591.13097191","NA","NA","NA","2","legacy","Frau","1024","2","48000","-16","experiment","2","even","81178.4021854","81107.4311733","54016.7460442","54016.2801743","NA","NA","4030.92002869","12021.8811035","NA","80361.0851765","NA","NA","NA","NA","NA","NA","NA","81526.6640186","NA","NA","NA","81178.2031059","NA","4087.56113052","NA","NA","NA","NA","80345.0510502","NA","Tutorial: Gaze cuing","0","0","0","yes","1024"
"undefined","undefined","undefined","undefined","white","no","0","links","rechts","psycho","psycho","psycho","0","uniform","NA","NA","z","53","53","1","1","NA","NA","0","0","NA","53","NA","NA","NA","NA","NA","NA","NA","53","NA","0","NA","53","NA","0","0","NA","1","NA","53","NA","Tue Feb 13 14:57:33 2018","The main experiment item","yes","","Python Experiment.osexp","/Users/johannaschuller/Documents/Uni/Master/Erstes_Semester/Python/Pruefungsleistung","no","mono","no","18","no","black","no","Ok","NA","no","Male","768","psycho","/Users/johannaschuller/Documents/Uni/Master/Erstes_Semester/Python/Pruefungsleistung/subject-2.csv","psycho","Interactive Ising","3.0.7","0","z","NA","NA","NA","NA","space","NA","282.717943192","NA","NA","NA","NA","1591.13097191","NA","NA","NA","2","legacy","Frau","1024","2","48000","-16","experiment","2","even","82511.6260052","82440.8760071","54016.7460442","54016.2801743","NA","NA","4030.92002869","12021.8811035","NA","81694.5111752","NA","NA","NA","NA","NA","NA","NA","82796.667099","NA","NA","NA","82511.4281178","NA","4087.56113052","NA","NA","NA","NA","81679.2850494","NA","Tutorial: Gaze cuing","0","0","0","yes","1024"
"undefined","undefined","undefined","undefined","white","no","0","rechts","rechts","psycho","psycho","psycho","0","uniform","NA","NA","m","54","54","1","1","NA","NA","0","0","NA","54","NA","NA","NA","NA","NA","NA","NA","54","NA","0","NA","54","NA","0","0","NA","1","NA","54","NA","Tue Feb 13 14:57:33 2018","The main experiment item","yes","","Python Experiment.osexp","/Users/johannaschuller/Documents/Uni/Master/Erstes_Semester/Python/Pruefungsleistung","no","mono","no","18","no","black","no","Ok","NA","no","Male","768","psycho","/Users/johannaschuller/Documents/Uni/Master/Erstes_Semester/Python/Pruefungsleistung/subject-2.csv","psycho","Interactive Ising","3.0.7","0","m","NA","NA","NA","NA","space","NA","278.380155563","NA","NA","NA","NA","1591.13097191","NA","NA","NA","2","legacy","Mann","1024","2","48000","-16","experiment","2","even","83778.7671089","83707.5631618","54016.7460442","54016.2801743","NA","NA","4030.92002869","12021.8811035","NA","82961.1570835","NA","NA","NA","NA","NA","NA","NA","84059.5371723","NA","NA","NA","83778.5651684","NA","4087.56113052","NA","NA","NA","NA","82943.6001778","NA","Tutorial: Gaze cuing","0","0","0","yes","1024"
"undefined","undefined","undefined","undefined","white","no","0","links","links","psycho","psycho","psycho","0","uniform","NA","NA","z","55","55","1","1","NA","NA","0","0","NA","55","NA","NA","NA","NA","NA","NA","NA","55","NA","0","NA","55","NA","0","0","NA","1","NA","55","NA","Tue Feb 13 14:57:33 2018","The main experiment item","yes","","Python Experiment.osexp","/Users/johannaschuller/Documents/Uni/Master/Erstes_Semester/Python/Pruefungsleistung","no","mono","no","18","no","black","no","Ok","NA","no","Male","768","psycho","/Users/johannaschuller/Documents/Uni/Master/Erstes_Semester/Python/Pruefungsleistung/subject-2.csv","psycho","Interactive Ising","3.0.7","0","z","NA","NA","NA","NA","space","NA","733.355998993","NA","NA","NA","NA","1591.13097191","NA","NA","NA","2","legacy","Frau","1024","2","48000","-16","experiment","2","even","85061.8300438","84974.1370678","54016.7460442","54016.2801743","NA","NA","4030.92002869","12021.8811035","NA","84227.9820442","NA","NA","NA","NA","NA","NA","NA","85797.5990772","NA","NA","NA","85061.6290569","NA","4087.56113052","NA","NA","NA","NA","84211.2829685","NA","Tutorial: Gaze cuing","0","0","0","yes","1024"
"undefined","undefined","undefined","undefined","white","no","0","rechts","rechts","psycho","psycho","psycho","0","uniform","NA","NA","m","56","56","1","1","NA","NA","0","0","NA","56","NA","NA","NA","NA","NA","NA","NA","56","NA","0","NA","56","NA","0","0","NA","1","NA","56","NA","Tue Feb 13 14:57:33 2018","The main experiment item","yes","","Python Experiment.osexp","/Users/johannaschuller/Documents/Uni/Master/Erstes_Semester/Python/Pruefungsleistung","no","mono","no","18","no","black","no","Ok","NA","no","Male","768","psycho","/Users/johannaschuller/Documents/Uni/Master/Erstes_Semester/Python/Pruefungsleistung/subject-2.csv","psycho","Interactive Ising","3.0.7","0","m","NA","NA","NA","NA","space","NA","765.074968338","NA","NA","NA","NA","1591.13097191","NA","NA","NA","2","legacy","Mann","1024","2","48000","-16","experiment","2","even","86779.0300846","86706.6781521","54016.7460442","54016.2801743","NA","NA","4030.92002869","12021.8811035","NA","85961.2970352","NA","NA","NA","NA","NA","NA","NA","87546.4360714","NA","NA","NA","86778.8300514","NA","4087.56113052","NA","NA","NA","NA","85950.0920773","NA","Tutorial: Gaze cuing","0","0","0","yes","1024"
"undefined","undefined","undefined","undefined","white","no","0","rechts","rechts","psycho","psycho","psycho","0","uniform","NA","NA","z","57","57","1","1","NA","NA","0","0","NA","57","NA","NA","NA","NA","NA","NA","NA","57","NA","0","NA","57","NA","0","0","NA","1","NA","57","NA","Tue Feb 13 14:57:33 2018","The main experiment item","yes","","Python Experiment.osexp","/Users/johannaschuller/Documents/Uni/Master/Erstes_Semester/Python/Pruefungsleistung","no","mono","no","18","no","black","no","Ok","NA","no","Male","768","psycho","/Users/johannaschuller/Documents/Uni/Master/Erstes_Semester/Python/Pruefungsleistung/subject-2.csv","psycho","Interactive Ising","3.0.7","0","z","NA","NA","NA","NA","space","NA","479.43687439","NA","NA","NA","NA","1591.13097191","NA","NA","NA","2","legacy","Frau","1024","2","48000","-16","experiment","2","even","88545.7100868","88457.4820995","54016.7460442","54016.2801743","NA","NA","4030.92002869","12021.8811035","NA","87712.018013","NA","NA","NA","NA","NA","NA","NA","89027.4550915","NA","NA","NA","88545.511961","NA","4087.56113052","NA","NA","NA","NA","87699.4609833","NA","Tutorial: Gaze cuing","0","0","0","yes","1024"
"undefined","undefined","undefined","undefined","white","no","0","links","links","psycho","psycho","psycho","0","uniform","NA","NA","m","58","58","1","1","NA","NA","0","0","NA","58","NA","NA","NA","NA","NA","NA","NA","58","NA","0","NA","58","NA","0","0","NA","1","NA","58","NA","Tue Feb 13 14:57:33 2018","The main experiment item","yes","","Python Experiment.osexp","/Users/johannaschuller/Documents/Uni/Master/Erstes_Semester/Python/Pruefungsleistung","no","mono","no","18","no","black","no","Ok","NA","no","Male","768","psycho","/Users/johannaschuller/Documents/Uni/Master/Erstes_Semester/Python/Pruefungsleistung/subject-2.csv","psycho","Interactive Ising","3.0.7","0","m","NA","NA","NA","NA","space","NA","344.707012177","NA","NA","NA","NA","1591.13097191","NA","NA","NA","2","legacy","Mann","1024","2","48000","-16","experiment","2","even","90012.2330189","89941.4191246","54016.7460442","54016.2801743","NA","NA","4030.92002869","12021.8811035","NA","89195.0721741","NA","NA","NA","NA","NA","NA","NA","90359.5261574","NA","NA","NA","90012.0351315","NA","4087.56113052","NA","NA","NA","NA","89178.383112","NA","Tutorial: Gaze cuing","0","0","0","yes","1024"
"undefined","undefined","undefined","undefined","white","no","0","links","rechts","psycho","psycho","psycho","0","uniform","NA","NA","m","59","59","1","1","NA","NA","0","0","NA","59","NA","NA","NA","NA","NA","NA","NA","59","NA","0","NA","59","NA","0","0","NA","1","NA","59","NA","Tue Feb 13 14:57:33 2018","The main experiment item","yes","","Python Experiment.osexp","/Users/johannaschuller/Documents/Uni/Master/Erstes_Semester/Python/Pruefungsleistung","no","mono","no","18","no","black","no","Ok","NA","no","Male","768","psycho","/Users/johannaschuller/Documents/Uni/Master/Erstes_Semester/Python/Pruefungsleistung/subject-2.csv","psycho","Interactive Ising","3.0.7","0","m","NA","NA","NA","NA","space","NA","339.694023132","NA","NA","NA","NA","1591.13097191","NA","NA","NA","2","legacy","Mann","1024","2","48000","-16","experiment","2","even","91346.2610245","91275.1040459","54016.7460442","54016.2801743","NA","NA","4030.92002869","12021.8811035","NA","90528.6610126","NA","NA","NA","NA","NA","NA","NA","91688.4269714","NA","NA","NA","91346.0621834","NA","4087.56113052","NA","NA","NA","NA","90516.0620213","NA","Tutorial: Gaze cuing","0","0","0","yes","1024"
"undefined","undefined","undefined","undefined","white","no","1","rechts","links","psycho","psycho","psycho","0","uniform","NA","NA","z","60","60","1","1","NA","NA","0","0","NA","60","NA","NA","NA","NA","NA","NA","NA","60","NA","0","NA","60","NA","0","0","NA","1","NA","60","NA","Tue Feb 13 14:57:33 2018","The main experiment item","yes","","Python Experiment.osexp","/Users/johannaschuller/Documents/Uni/Master/Erstes_Semester/Python/Pruefungsleistung","no","mono","no","18","no","black","no","Ok","NA","no","Male","768","psycho","/Users/johannaschuller/Documents/Uni/Master/Erstes_Semester/Python/Pruefungsleistung/subject-2.csv","psycho","Interactive Ising","3.0.7","0","z","NA","NA","NA","NA","space","NA","415.489912033","NA","NA","NA","NA","1591.13097191","NA","NA","NA","2","legacy","Frau","1024","2","48000","-16","experiment","2","even","92662.4491215","92592.2169685","54016.7460442","54016.2801743","NA","NA","4030.92002869","12021.8811035","NA","91845.7989693","NA","NA","NA","NA","NA","NA","NA","93080.2869797","NA","NA","NA","92662.2509956","NA","4087.56113052","NA","NA","NA","NA","91835.5610371","NA","Tutorial: Gaze cuing","0","0","0","yes","1024"
"undefined","undefined","undefined","undefined","white","no","0","rechts","rechts","psycho","psycho","psycho","0","uniform","NA","NA","m","61","61","1","1","NA","NA","0","0","NA","61","NA","NA","NA","NA","NA","NA","NA","61","NA","0","NA","61","NA","0","0","NA","1","NA","61","NA","Tue Feb 13 14:57:33 2018","The main experiment item","yes","","Python Experiment.osexp","/Users/johannaschuller/Documents/Uni/Master/Erstes_Semester/Python/Pruefungsleistung","no","mono","no","18","no","black","no","Ok","NA","no","Male","768","psycho","/Users/johannaschuller/Documents/Uni/Master/Erstes_Semester/Python/Pruefungsleistung/subject-2.csv","psycho","Interactive Ising","3.0.7","0","m","NA","NA","NA","NA","space","NA","364.850997925","NA","NA","NA","NA","1591.13097191","NA","NA","NA","2","legacy","Mann","1024","2","48000","-16","experiment","2","even","94063.0290508","93991.6920662","54016.7460442","54016.2801743","NA","NA","4030.92002869","12021.8811035","NA","93245.3081608","NA","NA","NA","NA","NA","NA","NA","94430.2530289","NA","NA","NA","94062.8311634","NA","4087.56113052","NA","NA","NA","NA","93233.31213","NA","Tutorial: Gaze cuing","0","0","0","yes","1024"
"undefined","undefined","undefined","undefined","white","no","1","rechts","links","psycho","psycho","psycho","0","uniform","NA","NA","m","62","62","1","1","NA","NA","0","0","NA","62","NA","NA","NA","NA","NA","NA","NA","62","NA","0","NA","62","NA","0","0","NA","1","NA","62","NA","Tue Feb 13 14:57:33 2018","The main experiment item","yes","","Python Experiment.osexp","/Users/johannaschuller/Documents/Uni/Master/Erstes_Semester/Python/Pruefungsleistung","no","mono","no","18","no","black","no","Ok","NA","no","Male","768","psycho","/Users/johannaschuller/Documents/Uni/Master/Erstes_Semester/Python/Pruefungsleistung/subject-2.csv","psycho","Interactive Ising","3.0.7","0","m","NA","NA","NA","NA","space","NA","385.746955872","NA","NA","NA","NA","1591.13097191","NA","NA","NA","2","legacy","Mann","1024","2","48000","-16","experiment","2","even","95413.1491184","95342.2460556","54016.7460442","54016.2801743","NA","NA","4030.92002869","12021.8811035","NA","94596.3811874","NA","NA","NA","NA","NA","NA","NA","95801.3000488","NA","NA","NA","95412.9490852","NA","4087.56113052","NA","NA","NA","NA","94576.3499737","NA","Tutorial: Gaze cuing","0","0","0","yes","1024"
"undefined","undefined","undefined","undefined","white","no","0","links","rechts","psycho","psycho","psycho","0","uniform","NA","NA","m","63","63","1","1","NA","NA","0","0","NA","63","NA","NA","NA","NA","NA","NA","NA","63","NA","0","NA","63","NA","0","0","NA","1","NA","63","NA","Tue Feb 13 14:57:33 2018","The main experiment item","yes","","Python Experiment.osexp","/Users/johannaschuller/Documents/Uni/Master/Erstes_Semester/Python/Pruefungsleistung","no","mono","no","18","no","black","no","Ok","NA","no","Male","768","psycho","/Users/johannaschuller/Documents/Uni/Master/Erstes_Semester/Python/Pruefungsleistung/subject-2.csv","psycho","Interactive Ising","3.0.7","0","m","NA","NA","NA","NA","space","NA","386.533975601","NA","NA","NA","NA","1591.13097191","NA","NA","NA","2","legacy","Mann","1024","2","48000","-16","experiment","2","even","96779.2761326","96708.7919712","54016.7460442","54016.2801743","NA","NA","4030.92002869","12021.8811035","NA","95963.32407","NA","NA","NA","NA","NA","NA","NA","97168.2779789","NA","NA","NA","96778.9971828","NA","4087.56113052","NA","NA","NA","NA","95955.5981159","NA","Tutorial: Gaze cuing","0","0","0","yes","1024"
