"acc","accuracy","average_response_time","avg_rt","background","bidi","blickr_congruency","blickr_eins","blickr_zwei","canvas_backend","clock_backend","color_backend","compensation","coordinates","correct","correct_keyboard_response","correct_response","count_Response","count_Target_1","count_block_loop","count_block_sequence","count_end_of_experiment","count_end_of_practice","count_experiment","count_experimental_loop","count_feedback","count_fixation_dot","count_gaze_cue","count_gaze_cue_1","count_gaze_neutral","count_getting_started","count_incorrect_sound","count_instructions","count_keyboard_response","count_logger","count_neutral_gaze","count_new_form_multiple_choice","count_new_logger","count_new_sketchpad","count_new_sketchpad_1","count_new_sketchpad_2","count_new_sketchpad_3","count_practice_loop","count_reset_feedback","count_target","count_trial_sequence","count_welcome","datetime","description","disable_garbage_collection","empty_column","experiment_file","experiment_path","font_bold","font_family","font_italic","font_size","font_underline","foreground","form_clicks","form_response","form_var","fullscreen","gender_subj","height","keyboard_backend","logfile","mouse_backend","opensesame_codename","opensesame_version","repeat_cycle","response","response_feedback","response_incorrect_sound","response_keyboard_response","response_new_sketchpad_1","response_new_sketchpad_2","response_new_sketchpad_3","response_time","response_time_feedback","response_time_incorrect_sound","response_time_keyboard_response","response_time_new_sketchpad_1","response_time_new_sketchpad_2","response_time_new_sketchpad_3","response_time_welcome","response_welcome","round_decimals","sampler_backend","sex","sound_buf_size","sound_channels","sound_freq","sound_sample_size","start","subject_nr","subject_parity","time_Response","time_Target_1","time_block_loop","time_block_sequence","time_end_of_experiment","time_end_of_practice","time_experiment","time_experimental_loop","time_feedback","time_fixation_dot","time_gaze_cue","time_gaze_cue_1","time_gaze_neutral","time_getting_started","time_incorrect_sound","time_instructions","time_keyboard_response","time_logger","time_neutral_gaze","time_new_form_multiple_choice","time_new_logger","time_new_sketchpad","time_new_sketchpad_1","time_new_sketchpad_2","time_new_sketchpad_3","time_practice_loop","time_reset_feedback","time_target","time_trial_sequence","time_welcome","title","total_correct","total_response_time","total_responses","uniform_coordinates","width"
"undefined","undefined","undefined","undefined","white","no","0","links","links","psycho","psycho","psycho","0","uniform","NA","NA","z","0","0","0","0","NA","NA","0","0","NA","0","NA","NA","NA","NA","NA","NA","NA","0","NA","0","NA","0","NA","0","0","NA","0","NA","0","NA","Tue Feb 13 14:54:10 2018","The main experiment item","yes","","Python Experiment.osexp","/Users/johannaschuller/Documents/Uni/Master/Erstes_Semester/Python/Pruefungsleistung","no","mono","no","18","no","black","no","Ok","NA","no","Female","768","psycho","/Users/johannaschuller/Documents/Uni/Master/Erstes_Semester/Python/Pruefungsleistung/Data/subject-1.csv","psycho","Interactive Ising","3.0.7","0","None","NA","NA","NA","NA","space","NA","3000.05888939","NA","NA","NA","NA","1324.35297966","NA","NA","NA","2","legacy","Frau","1024","2","48000","-16","experiment","1","odd","713054.919958","712967.759132","712040.387154","712040.027142","NA","NA","700004.75812","712039.047956","NA","712221.333981","NA","NA","NA","NA","NA","NA","NA","716055.437088","NA","NA","NA","713054.721117","NA","700071.004152","NA","NA","NA","NA","712200.05703","NA","Tutorial: Gaze cuing","0","0","0","yes","1024"
"undefined","undefined","undefined","undefined","white","no","0","links","links","psycho","psycho","psycho","0","uniform","NA","NA","z","1","1","0","0","NA","NA","0","0","NA","1","NA","NA","NA","NA","NA","NA","NA","1","NA","0","NA","1","NA","0","0","NA","0","NA","1","NA","Tue Feb 13 14:54:10 2018","The main experiment item","yes","","Python Experiment.osexp","/Users/johannaschuller/Documents/Uni/Master/Erstes_Semester/Python/Pruefungsleistung","no","mono","no","18","no","black","no","Ok","NA","no","Female","768","psycho","/Users/johannaschuller/Documents/Uni/Master/Erstes_Semester/Python/Pruefungsleistung/Data/subject-1.csv","psycho","Interactive Ising","3.0.7","0","z","NA","NA","NA","NA","space","NA","422.008037567","NA","NA","NA","NA","1324.35297966","NA","NA","NA","2","legacy","Frau","1024","2","48000","-16","experiment","1","odd","717038.578033","716967.612028","712040.387154","712040.027142","NA","NA","700004.75812","712039.047956","NA","716221.213102","NA","NA","NA","NA","NA","NA","NA","717463.065147","NA","NA","NA","717038.376093","NA","700071.004152","NA","NA","NA","NA","716210.402012","NA","Tutorial: Gaze cuing","0","0","0","yes","1024"
"undefined","undefined","undefined","undefined","white","no","0","links","links","psycho","psycho","psycho","0","uniform","NA","NA","z","2","2","0","0","NA","NA","0","0","NA","2","NA","NA","NA","NA","NA","NA","NA","2","NA","0","NA","2","NA","0","0","NA","0","NA","2","NA","Tue Feb 13 14:54:10 2018","The main experiment item","yes","","Python Experiment.osexp","/Users/johannaschuller/Documents/Uni/Master/Erstes_Semester/Python/Pruefungsleistung","no","mono","no","18","no","black","no","Ok","NA","no","Female","768","psycho","/Users/johannaschuller/Documents/Uni/Master/Erstes_Semester/Python/Pruefungsleistung/Data/subject-1.csv","psycho","Interactive Ising","3.0.7","0","z","NA","NA","NA","NA","space","NA","379.31394577","NA","NA","NA","NA","1324.35297966","NA","NA","NA","2","legacy","Frau","1024","2","48000","-16","experiment","1","odd","718455.189943","718384.586096","712040.387154","712040.027142","NA","NA","700004.75812","712039.047956","NA","717638.185978","NA","NA","NA","NA","NA","NA","NA","718836.905003","NA","NA","NA","718454.988956","NA","700071.004152","NA","NA","NA","NA","717619.588137","NA","Tutorial: Gaze cuing","0","0","0","yes","1024"
"undefined","undefined","undefined","undefined","white","no","0","links","rechts","psycho","psycho","psycho","0","uniform","NA","NA","m","3","3","0","0","NA","NA","0","0","NA","3","NA","NA","NA","NA","NA","NA","NA","3","NA","0","NA","3","NA","0","0","NA","0","NA","3","NA","Tue Feb 13 14:54:10 2018","The main experiment item","yes","","Python Experiment.osexp","/Users/johannaschuller/Documents/Uni/Master/Erstes_Semester/Python/Pruefungsleistung","no","mono","no","18","no","black","no","Ok","NA","no","Female","768","psycho","/Users/johannaschuller/Documents/Uni/Master/Erstes_Semester/Python/Pruefungsleistung/Data/subject-1.csv","psycho","Interactive Ising","3.0.7","0","m","NA","NA","NA","NA","space","NA","330.082893372","NA","NA","NA","NA","1324.35297966","NA","NA","NA","2","legacy","Mann","1024","2","48000","-16","experiment","1","odd","719855.458021","719767.82012","712040.387154","712040.027142","NA","NA","700004.75812","712039.047956","NA","719021.389008","NA","NA","NA","NA","NA","NA","NA","720187.973976","NA","NA","NA","719855.257034","NA","700071.004152","NA","NA","NA","NA","719005.690098","NA","Tutorial: Gaze cuing","0","0","0","yes","1024"
"undefined","undefined","undefined","undefined","white","no","0","rechts","rechts","psycho","psycho","psycho","0","uniform","NA","NA","z","4","4","0","0","NA","NA","0","0","NA","4","NA","NA","NA","NA","NA","NA","NA","4","NA","0","NA","4","NA","0","0","NA","0","NA","4","NA","Tue Feb 13 14:54:10 2018","The main experiment item","yes","","Python Experiment.osexp","/Users/johannaschuller/Documents/Uni/Master/Erstes_Semester/Python/Pruefungsleistung","no","mono","no","18","no","black","no","Ok","NA","no","Female","768","psycho","/Users/johannaschuller/Documents/Uni/Master/Erstes_Semester/Python/Pruefungsleistung/Data/subject-1.csv","psycho","Interactive Ising","3.0.7","0","m","NA","NA","NA","NA","space","NA","337.112903595","NA","NA","NA","NA","1324.35297966","NA","NA","NA","2","legacy","Frau","1024","2","48000","-16","experiment","1","odd","721189.217091","721101.636171","712040.387154","712040.027142","NA","NA","700004.75812","712039.047956","NA","720355.22604","NA","NA","NA","NA","NA","NA","NA","721528.784037","NA","NA","NA","721189.01515","NA","700071.004152","NA","NA","NA","NA","720341.789007","NA","Tutorial: Gaze cuing","0","0","0","yes","1024"
"undefined","undefined","undefined","undefined","white","no","1","rechts","links","psycho","psycho","psycho","0","uniform","NA","NA","z","5","5","0","0","NA","NA","0","0","NA","5","NA","NA","NA","NA","NA","NA","NA","5","NA","0","NA","5","NA","0","0","NA","0","NA","5","NA","Tue Feb 13 14:54:10 2018","The main experiment item","yes","","Python Experiment.osexp","/Users/johannaschuller/Documents/Uni/Master/Erstes_Semester/Python/Pruefungsleistung","no","mono","no","18","no","black","no","Ok","NA","no","Female","768","psycho","/Users/johannaschuller/Documents/Uni/Master/Erstes_Semester/Python/Pruefungsleistung/Data/subject-1.csv","psycho","Interactive Ising","3.0.7","0","z","NA","NA","NA","NA","space","NA","352.444887161","NA","NA","NA","NA","1324.35297966","NA","NA","NA","2","legacy","Frau","1024","2","48000","-16","experiment","1","odd","722538.891077","722451.369047","712040.387154","712040.027142","NA","NA","700004.75812","712039.047956","NA","721705.001116","NA","NA","NA","NA","NA","NA","NA","722893.90707","NA","NA","NA","722538.689137","NA","700071.004152","NA","NA","NA","NA","721687.544107","NA","Tutorial: Gaze cuing","0","0","0","yes","1024"
"undefined","undefined","undefined","undefined","white","no","0","rechts","rechts","psycho","psycho","psycho","0","uniform","NA","NA","m","6","6","0","0","NA","NA","0","0","NA","6","NA","NA","NA","NA","NA","NA","NA","6","NA","0","NA","6","NA","0","0","NA","0","NA","6","NA","Tue Feb 13 14:54:10 2018","The main experiment item","yes","","Python Experiment.osexp","/Users/johannaschuller/Documents/Uni/Master/Erstes_Semester/Python/Pruefungsleistung","no","mono","no","18","no","black","no","Ok","NA","no","Female","768","psycho","/Users/johannaschuller/Documents/Uni/Master/Erstes_Semester/Python/Pruefungsleistung/Data/subject-1.csv","psycho","Interactive Ising","3.0.7","0","m","NA","NA","NA","NA","space","NA","331.301927567","NA","NA","NA","NA","1324.35297966","NA","NA","NA","2","legacy","Mann","1024","2","48000","-16","experiment","1","odd","723872.001171","723801.203966","712040.387154","712040.027142","NA","NA","700004.75812","712039.047956","NA","723055.69005","NA","NA","NA","NA","NA","NA","NA","724205.842972","NA","NA","NA","723871.799946","NA","700071.004152","NA","NA","NA","NA","723047.724009","NA","Tutorial: Gaze cuing","0","0","0","yes","1024"
"undefined","undefined","undefined","undefined","white","no","1","rechts","links","psycho","psycho","psycho","0","uniform","NA","NA","z","7","7","0","0","NA","NA","0","0","NA","7","NA","NA","NA","NA","NA","NA","NA","7","NA","0","NA","7","NA","0","0","NA","0","NA","7","NA","Tue Feb 13 14:54:10 2018","The main experiment item","yes","","Python Experiment.osexp","/Users/johannaschuller/Documents/Uni/Master/Erstes_Semester/Python/Pruefungsleistung","no","mono","no","18","no","black","no","Ok","NA","no","Female","768","psycho","/Users/johannaschuller/Documents/Uni/Master/Erstes_Semester/Python/Pruefungsleistung/Data/subject-1.csv","psycho","Interactive Ising","3.0.7","0","z","NA","NA","NA","NA","space","NA","399.703025818","NA","NA","NA","NA","1324.35297966","NA","NA","NA","2","legacy","Frau","1024","2","48000","-16","experiment","1","odd","725188.740015","725118.880987","712040.387154","712040.027142","NA","NA","700004.75812","712039.047956","NA","724372.509956","NA","NA","NA","NA","NA","NA","NA","725590.762138","NA","NA","NA","725188.538074","NA","700071.004152","NA","NA","NA","NA","724354.794025","NA","Tutorial: Gaze cuing","0","0","0","yes","1024"
"undefined","undefined","undefined","undefined","white","no","0","links","links","psycho","psycho","psycho","0","uniform","NA","NA","m","8","8","0","0","NA","NA","0","0","NA","8","NA","NA","NA","NA","NA","NA","NA","8","NA","0","NA","8","NA","0","0","NA","0","NA","8","NA","Tue Feb 13 14:54:10 2018","The main experiment item","yes","","Python Experiment.osexp","/Users/johannaschuller/Documents/Uni/Master/Erstes_Semester/Python/Pruefungsleistung","no","mono","no","18","no","black","no","Ok","NA","no","Female","768","psycho","/Users/johannaschuller/Documents/Uni/Master/Erstes_Semester/Python/Pruefungsleistung/Data/subject-1.csv","psycho","Interactive Ising","3.0.7","0","m","NA","NA","NA","NA","space","NA","361.831903458","NA","NA","NA","NA","1324.35297966","NA","NA","NA","2","legacy","Mann","1024","2","48000","-16","experiment","1","odd","726572.555065","726501.551151","712040.387154","712040.027142","NA","NA","700004.75812","712039.047956","NA","725755.125046","NA","NA","NA","NA","NA","NA","NA","726936.738968","NA","NA","NA","726572.355032","NA","700071.004152","NA","NA","NA","NA","725746.511936","NA","Tutorial: Gaze cuing","0","0","0","yes","1024"
"undefined","undefined","undefined","undefined","white","no","0","rechts","rechts","psycho","psycho","psycho","0","uniform","NA","NA","m","9","9","0","0","NA","NA","0","0","NA","9","NA","NA","NA","NA","NA","NA","NA","9","NA","0","NA","9","NA","0","0","NA","0","NA","9","NA","Tue Feb 13 14:54:10 2018","The main experiment item","yes","","Python Experiment.osexp","/Users/johannaschuller/Documents/Uni/Master/Erstes_Semester/Python/Pruefungsleistung","no","mono","no","18","no","black","no","Ok","NA","no","Female","768","psycho","/Users/johannaschuller/Documents/Uni/Master/Erstes_Semester/Python/Pruefungsleistung/Data/subject-1.csv","psycho","Interactive Ising","3.0.7","0","m","NA","NA","NA","NA","space","NA","509.021997452","NA","NA","NA","NA","1324.35297966","NA","NA","NA","2","legacy","Mann","1024","2","48000","-16","experiment","1","odd","727923.25902","727852.553129","712040.387154","712040.027142","NA","NA","700004.75812","712039.047956","NA","727106.212139","NA","NA","NA","NA","NA","NA","NA","728434.641123","NA","NA","NA","727923.056126","NA","700071.004152","NA","NA","NA","NA","727085.634947","NA","Tutorial: Gaze cuing","0","0","0","yes","1024"
"undefined","undefined","undefined","undefined","white","no","0","rechts","rechts","psycho","psycho","psycho","0","uniform","NA","NA","m","10","10","0","0","NA","NA","0","0","NA","10","NA","NA","NA","NA","NA","NA","NA","10","NA","0","NA","10","NA","0","0","NA","0","NA","10","NA","Tue Feb 13 14:54:10 2018","The main experiment item","yes","","Python Experiment.osexp","/Users/johannaschuller/Documents/Uni/Master/Erstes_Semester/Python/Pruefungsleistung","no","mono","no","18","no","black","no","Ok","NA","no","Female","768","psycho","/Users/johannaschuller/Documents/Uni/Master/Erstes_Semester/Python/Pruefungsleistung/Data/subject-1.csv","psycho","Interactive Ising","3.0.7","0","m","NA","NA","NA","NA","space","NA","408.091068268","NA","NA","NA","NA","1324.35297966","NA","NA","NA","2","legacy","Mann","1024","2","48000","-16","experiment","1","odd","729423.249006","729351.127148","712040.387154","712040.027142","NA","NA","700004.75812","712039.047956","NA","728605.746031","NA","NA","NA","NA","NA","NA","NA","729833.629131","NA","NA","NA","729423.050165","NA","700071.004152","NA","NA","NA","NA","728588.401079","NA","Tutorial: Gaze cuing","0","0","0","yes","1024"
"undefined","undefined","undefined","undefined","white","no","0","links","rechts","psycho","psycho","psycho","0","uniform","NA","NA","m","11","11","0","0","NA","NA","0","0","NA","11","NA","NA","NA","NA","NA","NA","NA","11","NA","0","NA","11","NA","0","0","NA","0","NA","11","NA","Tue Feb 13 14:54:10 2018","The main experiment item","yes","","Python Experiment.osexp","/Users/johannaschuller/Documents/Uni/Master/Erstes_Semester/Python/Pruefungsleistung","no","mono","no","18","no","black","no","Ok","NA","no","Female","768","psycho","/Users/johannaschuller/Documents/Uni/Master/Erstes_Semester/Python/Pruefungsleistung/Data/subject-1.csv","psycho","Interactive Ising","3.0.7","0","m","NA","NA","NA","NA","space","NA","597.550153732","NA","NA","NA","NA","1324.35297966","NA","NA","NA","2","legacy","Mann","1024","2","48000","-16","experiment","1","odd","730823.557138","730752.023935","712040.387154","712040.027142","NA","NA","700004.75812","712039.047956","NA","730005.911112","NA","NA","NA","NA","NA","NA","NA","731423.441172","NA","NA","NA","730823.357105","NA","700071.004152","NA","NA","NA","NA","729985.275984","NA","Tutorial: Gaze cuing","0","0","0","yes","1024"
"undefined","undefined","undefined","undefined","white","no","0","links","rechts","psycho","psycho","psycho","0","uniform","NA","NA","m","12","12","0","0","NA","NA","0","0","NA","12","NA","NA","NA","NA","NA","NA","NA","12","NA","0","NA","12","NA","0","0","NA","0","NA","12","NA","Tue Feb 13 14:54:10 2018","The main experiment item","yes","","Python Experiment.osexp","/Users/johannaschuller/Documents/Uni/Master/Erstes_Semester/Python/Pruefungsleistung","no","mono","no","18","no","black","no","Ok","NA","no","Female","768","psycho","/Users/johannaschuller/Documents/Uni/Master/Erstes_Semester/Python/Pruefungsleistung/Data/subject-1.csv","psycho","Interactive Ising","3.0.7","0","m","NA","NA","NA","NA","space","NA","447.141170502","NA","NA","NA","NA","1324.35297966","NA","NA","NA","2","legacy","Mann","1024","2","48000","-16","experiment","1","odd","732406.058073","732334.774971","712040.387154","712040.027142","NA","NA","700004.75812","712039.047956","NA","731589.409113","NA","NA","NA","NA","NA","NA","NA","732855.617046","NA","NA","NA","732405.857086","NA","700071.004152","NA","NA","NA","NA","731576.883078","NA","Tutorial: Gaze cuing","0","0","0","yes","1024"
"undefined","undefined","undefined","undefined","white","no","1","rechts","links","psycho","psycho","psycho","0","uniform","NA","NA","m","13","13","0","0","NA","NA","0","0","NA","13","NA","NA","NA","NA","NA","NA","NA","13","NA","0","NA","13","NA","0","0","NA","0","NA","13","NA","Tue Feb 13 14:54:10 2018","The main experiment item","yes","","Python Experiment.osexp","/Users/johannaschuller/Documents/Uni/Master/Erstes_Semester/Python/Pruefungsleistung","no","mono","no","18","no","black","no","Ok","NA","no","Female","768","psycho","/Users/johannaschuller/Documents/Uni/Master/Erstes_Semester/Python/Pruefungsleistung/Data/subject-1.csv","psycho","Interactive Ising","3.0.7","0","m","NA","NA","NA","NA","space","NA","368.70098114","NA","NA","NA","NA","1324.35297966","NA","NA","NA","2","legacy","Mann","1024","2","48000","-16","experiment","1","odd","733840.463161","733769.649982","712040.387154","712040.027142","NA","NA","700004.75812","712039.047956","NA","733023.247004","NA","NA","NA","NA","NA","NA","NA","734211.424112","NA","NA","NA","733840.260029","NA","700071.004152","NA","NA","NA","NA","733007.821083","NA","Tutorial: Gaze cuing","0","0","0","yes","1024"
"undefined","undefined","undefined","undefined","white","no","0","links","rechts","psycho","psycho","psycho","0","uniform","NA","NA","z","14","14","0","0","NA","NA","0","0","NA","14","NA","NA","NA","NA","NA","NA","NA","14","NA","0","NA","14","NA","0","0","NA","0","NA","14","NA","Tue Feb 13 14:54:10 2018","The main experiment item","yes","","Python Experiment.osexp","/Users/johannaschuller/Documents/Uni/Master/Erstes_Semester/Python/Pruefungsleistung","no","mono","no","18","no","black","no","Ok","NA","no","Female","768","psycho","/Users/johannaschuller/Documents/Uni/Master/Erstes_Semester/Python/Pruefungsleistung/Data/subject-1.csv","psycho","Interactive Ising","3.0.7","0","z","NA","NA","NA","NA","space","NA","330.637931824","NA","NA","NA","NA","1324.35297966","NA","NA","NA","2","legacy","Frau","1024","2","48000","-16","experiment","1","odd","735223.40703","735136.664152","712040.387154","712040.027142","NA","NA","700004.75812","712039.047956","NA","734390.239954","NA","NA","NA","NA","NA","NA","NA","735556.493044","NA","NA","NA","735223.21105","NA","700071.004152","NA","NA","NA","NA","734370.149136","NA","Tutorial: Gaze cuing","0","0","0","yes","1024"
"undefined","undefined","undefined","undefined","white","no","0","rechts","rechts","psycho","psycho","psycho","0","uniform","NA","NA","m","15","15","0","0","NA","NA","0","0","NA","15","NA","NA","NA","NA","NA","NA","NA","15","NA","0","NA","15","NA","0","0","NA","0","NA","15","NA","Tue Feb 13 14:54:10 2018","The main experiment item","yes","","Python Experiment.osexp","/Users/johannaschuller/Documents/Uni/Master/Erstes_Semester/Python/Pruefungsleistung","no","mono","no","18","no","black","no","Ok","NA","no","Female","768","psycho","/Users/johannaschuller/Documents/Uni/Master/Erstes_Semester/Python/Pruefungsleistung/Data/subject-1.csv","psycho","Interactive Ising","3.0.7","0","m","NA","NA","NA","NA","space","NA","356.231212616","NA","NA","NA","NA","1324.35297966","NA","NA","NA","2","legacy","Mann","1024","2","48000","-16","experiment","1","odd","736539.858103","736469.316959","712040.387154","712040.027142","NA","NA","700004.75812","712039.047956","NA","735722.915173","NA","NA","NA","NA","NA","NA","NA","736898.436069","NA","NA","NA","736539.657116","NA","700071.004152","NA","NA","NA","NA","735703.408003","NA","Tutorial: Gaze cuing","0","0","0","yes","1024"
"undefined","undefined","undefined","undefined","white","no","0","rechts","rechts","psycho","psycho","psycho","0","uniform","NA","NA","z","16","16","0","0","NA","NA","0","0","NA","16","NA","NA","NA","NA","NA","NA","NA","16","NA","0","NA","16","NA","0","0","NA","0","NA","16","NA","Tue Feb 13 14:54:10 2018","The main experiment item","yes","","Python Experiment.osexp","/Users/johannaschuller/Documents/Uni/Master/Erstes_Semester/Python/Pruefungsleistung","no","mono","no","18","no","black","no","Ok","NA","no","Female","768","psycho","/Users/johannaschuller/Documents/Uni/Master/Erstes_Semester/Python/Pruefungsleistung/Data/subject-1.csv","psycho","Interactive Ising","3.0.7","0","z","NA","NA","NA","NA","space","NA","523.209095001","NA","NA","NA","NA","1324.35297966","NA","NA","NA","2","legacy","Frau","1024","2","48000","-16","experiment","1","odd","737906.737089","737836.912155","712040.387154","712040.027142","NA","NA","700004.75812","712039.047956","NA","737090.52515","NA","NA","NA","NA","NA","NA","NA","738432.157993","NA","NA","NA","737906.538963","NA","700071.004152","NA","NA","NA","NA","737068.032026","NA","Tutorial: Gaze cuing","0","0","0","yes","1024"
"undefined","undefined","undefined","undefined","white","no","0","links","links","psycho","psycho","psycho","0","uniform","NA","NA","m","17","17","0","0","NA","NA","0","0","NA","17","NA","NA","NA","NA","NA","NA","NA","17","NA","0","NA","17","NA","0","0","NA","0","NA","17","NA","Tue Feb 13 14:54:10 2018","The main experiment item","yes","","Python Experiment.osexp","/Users/johannaschuller/Documents/Uni/Master/Erstes_Semester/Python/Pruefungsleistung","no","mono","no","18","no","black","no","Ok","NA","no","Female","768","psycho","/Users/johannaschuller/Documents/Uni/Master/Erstes_Semester/Python/Pruefungsleistung/Data/subject-1.csv","psycho","Interactive Ising","3.0.7","0","m","NA","NA","NA","NA","space","NA","414.386034012","NA","NA","NA","NA","1324.35297966","NA","NA","NA","2","legacy","Mann","1024","2","48000","-16","experiment","1","odd","739440.665007","739352.920055","712040.387154","712040.027142","NA","NA","700004.75812","712039.047956","NA","738606.553078","NA","NA","NA","NA","NA","NA","NA","739857.336044","NA","NA","NA","739440.46402","NA","700071.004152","NA","NA","NA","NA","738589.123964","NA","Tutorial: Gaze cuing","0","0","0","yes","1024"
"undefined","undefined","undefined","undefined","white","no","1","rechts","links","psycho","psycho","psycho","0","uniform","NA","NA","m","18","18","0","0","NA","NA","0","0","NA","18","NA","NA","NA","NA","NA","NA","NA","18","NA","0","NA","18","NA","0","0","NA","0","NA","18","NA","Tue Feb 13 14:54:10 2018","The main experiment item","yes","","Python Experiment.osexp","/Users/johannaschuller/Documents/Uni/Master/Erstes_Semester/Python/Pruefungsleistung","no","mono","no","18","no","black","no","Ok","NA","no","Female","768","psycho","/Users/johannaschuller/Documents/Uni/Master/Erstes_Semester/Python/Pruefungsleistung/Data/subject-1.csv","psycho","Interactive Ising","3.0.7","0","z","NA","NA","NA","NA","space","NA","534.102201462","NA","NA","NA","NA","1324.35297966","NA","NA","NA","2","legacy","Mann","1024","2","48000","-16","experiment","1","odd","740840.886116","740769.482136","712040.387154","712040.027142","NA","NA","700004.75812","712039.047956","NA","740023.133039","NA","NA","NA","NA","NA","NA","NA","741377.439022","NA","NA","NA","740840.685129","NA","700071.004152","NA","NA","NA","NA","740013.241053","NA","Tutorial: Gaze cuing","0","0","0","yes","1024"
"undefined","undefined","undefined","undefined","white","no","0","links","links","psycho","psycho","psycho","0","uniform","NA","NA","m","19","19","0","0","NA","NA","0","0","NA","19","NA","NA","NA","NA","NA","NA","NA","19","NA","0","NA","19","NA","0","0","NA","0","NA","19","NA","Tue Feb 13 14:54:10 2018","The main experiment item","yes","","Python Experiment.osexp","/Users/johannaschuller/Documents/Uni/Master/Erstes_Semester/Python/Pruefungsleistung","no","mono","no","18","no","black","no","Ok","NA","no","Female","768","psycho","/Users/johannaschuller/Documents/Uni/Master/Erstes_Semester/Python/Pruefungsleistung/Data/subject-1.csv","psycho","Interactive Ising","3.0.7","0","m","NA","NA","NA","NA","space","NA","239.835977554","NA","NA","NA","NA","1324.35297966","NA","NA","NA","2","legacy","Mann","1024","2","48000","-16","experiment","1","odd","742373.999119","742304.002047","712040.387154","712040.027142","NA","NA","700004.75812","712039.047956","NA","741557.595968","NA","NA","NA","NA","NA","NA","NA","742616.290092","NA","NA","NA","742373.798132","NA","700071.004152","NA","NA","NA","NA","741535.495043","NA","Tutorial: Gaze cuing","0","0","0","yes","1024"
"undefined","undefined","undefined","undefined","white","no","0","links","rechts","psycho","psycho","psycho","0","uniform","NA","NA","z","20","20","0","0","NA","NA","0","0","NA","20","NA","NA","NA","NA","NA","NA","NA","20","NA","0","NA","20","NA","0","0","NA","0","NA","20","NA","Tue Feb 13 14:54:10 2018","The main experiment item","yes","","Python Experiment.osexp","/Users/johannaschuller/Documents/Uni/Master/Erstes_Semester/Python/Pruefungsleistung","no","mono","no","18","no","black","no","Ok","NA","no","Female","768","psycho","/Users/johannaschuller/Documents/Uni/Master/Erstes_Semester/Python/Pruefungsleistung/Data/subject-1.csv","psycho","Interactive Ising","3.0.7","0","z","NA","NA","NA","NA","space","NA","359.783172607","NA","NA","NA","NA","1324.35297966","NA","NA","NA","2","legacy","Frau","1024","2","48000","-16","experiment","1","odd","743591.066122","743519.246101","712040.387154","712040.027142","NA","NA","700004.75812","712039.047956","NA","742773.91696","NA","NA","NA","NA","NA","NA","NA","743953.14908","NA","NA","NA","743590.865135","NA","700071.004152","NA","NA","NA","NA","742762.648106","NA","Tutorial: Gaze cuing","0","0","0","yes","1024"
"undefined","undefined","undefined","undefined","white","no","1","rechts","links","psycho","psycho","psycho","0","uniform","NA","NA","m","21","21","0","0","NA","NA","0","0","NA","21","NA","NA","NA","NA","NA","NA","NA","21","NA","0","NA","21","NA","0","0","NA","0","NA","21","NA","Tue Feb 13 14:54:10 2018","The main experiment item","yes","","Python Experiment.osexp","/Users/johannaschuller/Documents/Uni/Master/Erstes_Semester/Python/Pruefungsleistung","no","mono","no","18","no","black","no","Ok","NA","no","Female","768","psycho","/Users/johannaschuller/Documents/Uni/Master/Erstes_Semester/Python/Pruefungsleistung/Data/subject-1.csv","psycho","Interactive Ising","3.0.7","0","m","NA","NA","NA","NA","space","NA","278.539896011","NA","NA","NA","NA","1324.35297966","NA","NA","NA","2","legacy","Mann","1024","2","48000","-16","experiment","1","odd","744941.37001","744870.387077","712040.387154","712040.027142","NA","NA","700004.75812","712039.047956","NA","744123.95215","NA","NA","NA","NA","NA","NA","NA","745222.180128","NA","NA","NA","744941.169977","NA","700071.004152","NA","NA","NA","NA","744102.138042","NA","Tutorial: Gaze cuing","0","0","0","yes","1024"
"undefined","undefined","undefined","undefined","white","no","1","rechts","links","psycho","psycho","psycho","0","uniform","NA","NA","z","22","22","0","0","NA","NA","0","0","NA","22","NA","NA","NA","NA","NA","NA","NA","22","NA","0","NA","22","NA","0","0","NA","0","NA","22","NA","Tue Feb 13 14:54:10 2018","The main experiment item","yes","","Python Experiment.osexp","/Users/johannaschuller/Documents/Uni/Master/Erstes_Semester/Python/Pruefungsleistung","no","mono","no","18","no","black","no","Ok","NA","no","Female","768","psycho","/Users/johannaschuller/Documents/Uni/Master/Erstes_Semester/Python/Pruefungsleistung/Data/subject-1.csv","psycho","Interactive Ising","3.0.7","0","z","NA","NA","NA","NA","space","NA","547.276973724","NA","NA","NA","NA","1324.35297966","NA","NA","NA","2","legacy","Frau","1024","2","48000","-16","experiment","1","odd","746207.57699","746137.621164","712040.387154","712040.027142","NA","NA","700004.75812","712039.047956","NA","745391.272068","NA","NA","NA","NA","NA","NA","NA","746758.231163","NA","NA","NA","746207.374096","NA","700071.004152","NA","NA","NA","NA","745369.168043","NA","Tutorial: Gaze cuing","0","0","0","yes","1024"
"undefined","undefined","undefined","undefined","white","no","0","links","rechts","psycho","psycho","psycho","0","uniform","NA","NA","m","23","23","0","0","NA","NA","0","0","NA","23","NA","NA","NA","NA","NA","NA","NA","23","NA","0","NA","23","NA","0","0","NA","0","NA","23","NA","Tue Feb 13 14:54:10 2018","The main experiment item","yes","","Python Experiment.osexp","/Users/johannaschuller/Documents/Uni/Master/Erstes_Semester/Python/Pruefungsleistung","no","mono","no","18","no","black","no","Ok","NA","no","Female","768","psycho","/Users/johannaschuller/Documents/Uni/Master/Erstes_Semester/Python/Pruefungsleistung/Data/subject-1.csv","psycho","Interactive Ising","3.0.7","0","z","NA","NA","NA","NA","space","NA","326.987028122","NA","NA","NA","NA","1324.35297966","NA","NA","NA","2","legacy","Mann","1024","2","48000","-16","experiment","1","odd","747740.755081","747670.375109","712040.387154","712040.027142","NA","NA","700004.75812","712039.047956","NA","746923.921108","NA","NA","NA","NA","NA","NA","NA","748070.253134","NA","NA","NA","747740.555048","NA","700071.004152","NA","NA","NA","NA","746913.221121","NA","Tutorial: Gaze cuing","0","0","0","yes","1024"
"undefined","undefined","undefined","undefined","white","no","0","links","rechts","psycho","psycho","psycho","0","uniform","NA","NA","z","24","24","0","0","NA","NA","0","0","NA","24","NA","NA","NA","NA","NA","NA","NA","24","NA","0","NA","24","NA","0","0","NA","0","NA","24","NA","Tue Feb 13 14:54:10 2018","The main experiment item","yes","","Python Experiment.osexp","/Users/johannaschuller/Documents/Uni/Master/Erstes_Semester/Python/Pruefungsleistung","no","mono","no","18","no","black","no","Ok","NA","no","Female","768","psycho","/Users/johannaschuller/Documents/Uni/Master/Erstes_Semester/Python/Pruefungsleistung/Data/subject-1.csv","psycho","Interactive Ising","3.0.7","0","z","NA","NA","NA","NA","space","NA","603.590965271","NA","NA","NA","NA","1324.35297966","NA","NA","NA","2","legacy","Frau","1024","2","48000","-16","experiment","1","odd","749058.241129","748987.65707","712040.387154","712040.027142","NA","NA","700004.75812","712039.047956","NA","748241.300106","NA","NA","NA","NA","NA","NA","NA","749664.186001","NA","NA","NA","749058.03895","NA","700071.004152","NA","NA","NA","NA","748222.511053","NA","Tutorial: Gaze cuing","0","0","0","yes","1024"
"undefined","undefined","undefined","undefined","white","no","0","links","rechts","psycho","psycho","psycho","0","uniform","NA","NA","z","25","25","0","0","NA","NA","0","0","NA","25","NA","NA","NA","NA","NA","NA","NA","25","NA","0","NA","25","NA","0","0","NA","0","NA","25","NA","Tue Feb 13 14:54:10 2018","The main experiment item","yes","","Python Experiment.osexp","/Users/johannaschuller/Documents/Uni/Master/Erstes_Semester/Python/Pruefungsleistung","no","mono","no","18","no","black","no","Ok","NA","no","Female","768","psycho","/Users/johannaschuller/Documents/Uni/Master/Erstes_Semester/Python/Pruefungsleistung/Data/subject-1.csv","psycho","Interactive Ising","3.0.7","0","z","NA","NA","NA","NA","space","NA","395.106077194","NA","NA","NA","NA","1324.35297966","NA","NA","NA","2","legacy","Frau","1024","2","48000","-16","experiment","1","odd","750641.659021","750570.533991","712040.387154","712040.027142","NA","NA","700004.75812","712039.047956","NA","749824.179173","NA","NA","NA","NA","NA","NA","NA","751039.08205","NA","NA","NA","750641.450167","NA","700071.004152","NA","NA","NA","NA","749816.141129","NA","Tutorial: Gaze cuing","0","0","0","yes","1024"
"undefined","undefined","undefined","undefined","white","no","1","rechts","links","psycho","psycho","psycho","0","uniform","NA","NA","z","26","26","0","0","NA","NA","0","0","NA","26","NA","NA","NA","NA","NA","NA","NA","26","NA","0","NA","26","NA","0","0","NA","0","NA","26","NA","Tue Feb 13 14:54:10 2018","The main experiment item","yes","","Python Experiment.osexp","/Users/johannaschuller/Documents/Uni/Master/Erstes_Semester/Python/Pruefungsleistung","no","mono","no","18","no","black","no","Ok","NA","no","Female","768","psycho","/Users/johannaschuller/Documents/Uni/Master/Erstes_Semester/Python/Pruefungsleistung/Data/subject-1.csv","psycho","Interactive Ising","3.0.7","0","z","NA","NA","NA","NA","space","NA","377.649068832","NA","NA","NA","NA","1324.35297966","NA","NA","NA","2","legacy","Frau","1024","2","48000","-16","experiment","1","odd","752024.927139","751953.170061","712040.387154","712040.027142","NA","NA","700004.75812","712039.047956","NA","751207.592964","NA","NA","NA","NA","NA","NA","NA","752404.910088","NA","NA","NA","752024.72496","NA","700071.004152","NA","NA","NA","NA","751195.708036","NA","Tutorial: Gaze cuing","0","0","0","yes","1024"
"undefined","undefined","undefined","undefined","white","no","1","rechts","links","psycho","psycho","psycho","0","uniform","NA","NA","m","27","27","0","0","NA","NA","0","0","NA","27","NA","NA","NA","NA","NA","NA","NA","27","NA","0","NA","27","NA","0","0","NA","0","NA","27","NA","Tue Feb 13 14:54:10 2018","The main experiment item","yes","","Python Experiment.osexp","/Users/johannaschuller/Documents/Uni/Master/Erstes_Semester/Python/Pruefungsleistung","no","mono","no","18","no","black","no","Ok","NA","no","Female","768","psycho","/Users/johannaschuller/Documents/Uni/Master/Erstes_Semester/Python/Pruefungsleistung/Data/subject-1.csv","psycho","Interactive Ising","3.0.7","0","m","NA","NA","NA","NA","space","NA","339.169025421","NA","NA","NA","NA","1324.35297966","NA","NA","NA","2","legacy","Mann","1024","2","48000","-16","experiment","1","odd","753391.566992","753320.368052","712040.387154","712040.027142","NA","NA","700004.75812","712039.047956","NA","752574.895144","NA","NA","NA","NA","NA","NA","NA","753733.148098","NA","NA","NA","753391.366959","NA","700071.004152","NA","NA","NA","NA","752558.346033","NA","Tutorial: Gaze cuing","0","0","0","yes","1024"
"undefined","undefined","undefined","undefined","white","no","0","rechts","rechts","psycho","psycho","psycho","0","uniform","NA","NA","z","28","28","0","0","NA","NA","0","0","NA","28","NA","NA","NA","NA","NA","NA","NA","28","NA","0","NA","28","NA","0","0","NA","0","NA","28","NA","Tue Feb 13 14:54:10 2018","The main experiment item","yes","","Python Experiment.osexp","/Users/johannaschuller/Documents/Uni/Master/Erstes_Semester/Python/Pruefungsleistung","no","mono","no","18","no","black","no","Ok","NA","no","Female","768","psycho","/Users/johannaschuller/Documents/Uni/Master/Erstes_Semester/Python/Pruefungsleistung/Data/subject-1.csv","psycho","Interactive Ising","3.0.7","0","z","NA","NA","NA","NA","space","NA","372.115135193","NA","NA","NA","NA","1324.35297966","NA","NA","NA","2","legacy","Frau","1024","2","48000","-16","experiment","1","odd","754708.518982","754638.034105","712040.387154","712040.027142","NA","NA","700004.75812","712039.047956","NA","753892.193079","NA","NA","NA","NA","NA","NA","NA","755083.042145","NA","NA","NA","754708.320141","NA","700071.004152","NA","NA","NA","NA","753885.447025","NA","Tutorial: Gaze cuing","0","0","0","yes","1024"
"undefined","undefined","undefined","undefined","white","no","0","rechts","rechts","psycho","psycho","psycho","0","uniform","NA","NA","z","29","29","0","0","NA","NA","0","0","NA","29","NA","NA","NA","NA","NA","NA","NA","29","NA","0","NA","29","NA","0","0","NA","0","NA","29","NA","Tue Feb 13 14:54:10 2018","The main experiment item","yes","","Python Experiment.osexp","/Users/johannaschuller/Documents/Uni/Master/Erstes_Semester/Python/Pruefungsleistung","no","mono","no","18","no","black","no","Ok","NA","no","Female","768","psycho","/Users/johannaschuller/Documents/Uni/Master/Erstes_Semester/Python/Pruefungsleistung/Data/subject-1.csv","psycho","Interactive Ising","3.0.7","0","z","NA","NA","NA","NA","space","NA","364.225149155","NA","NA","NA","NA","1324.35297966","NA","NA","NA","2","legacy","Frau","1024","2","48000","-16","experiment","1","odd","756058.387995","755988.412142","712040.387154","712040.027142","NA","NA","700004.75812","712039.047956","NA","755242.058039","NA","NA","NA","NA","NA","NA","NA","756425.111055","NA","NA","NA","756058.176041","NA","700071.004152","NA","NA","NA","NA","755231.356144","NA","Tutorial: Gaze cuing","0","0","0","yes","1024"
"undefined","undefined","undefined","undefined","white","no","0","links","links","psycho","psycho","psycho","0","uniform","NA","NA","z","30","30","0","0","NA","NA","0","0","NA","30","NA","NA","NA","NA","NA","NA","NA","30","NA","0","NA","30","NA","0","0","NA","0","NA","30","NA","Tue Feb 13 14:54:10 2018","The main experiment item","yes","","Python Experiment.osexp","/Users/johannaschuller/Documents/Uni/Master/Erstes_Semester/Python/Pruefungsleistung","no","mono","no","18","no","black","no","Ok","NA","no","Female","768","psycho","/Users/johannaschuller/Documents/Uni/Master/Erstes_Semester/Python/Pruefungsleistung/Data/subject-1.csv","psycho","Interactive Ising","3.0.7","0","z","NA","NA","NA","NA","space","NA","352.895975113","NA","NA","NA","NA","1324.35297966","NA","NA","NA","2","legacy","Frau","1024","2","48000","-16","experiment","1","odd","757409.485102","757338.086128","712040.387154","712040.027142","NA","NA","700004.75812","712039.047956","NA","756591.726065","NA","NA","NA","NA","NA","NA","NA","757765.180111","NA","NA","NA","757409.284115","NA","700071.004152","NA","NA","NA","NA","756580.554962","NA","Tutorial: Gaze cuing","0","0","0","yes","1024"
"undefined","undefined","undefined","undefined","white","no","0","links","links","psycho","psycho","psycho","0","uniform","NA","NA","m","31","31","0","0","NA","NA","0","0","NA","31","NA","NA","NA","NA","NA","NA","NA","31","NA","0","NA","31","NA","0","0","NA","0","NA","31","NA","Tue Feb 13 14:54:10 2018","The main experiment item","yes","","Python Experiment.osexp","/Users/johannaschuller/Documents/Uni/Master/Erstes_Semester/Python/Pruefungsleistung","no","mono","no","18","no","black","no","Ok","NA","no","Female","768","psycho","/Users/johannaschuller/Documents/Uni/Master/Erstes_Semester/Python/Pruefungsleistung/Data/subject-1.csv","psycho","Interactive Ising","3.0.7","0","m","NA","NA","NA","NA","space","NA","813.90786171","NA","NA","NA","NA","1324.35297966","NA","NA","NA","2","legacy","Mann","1024","2","48000","-16","experiment","1","odd","758742.691994","758672.526121","712040.387154","712040.027142","NA","NA","700004.75812","712039.047956","NA","757926.114082","NA","NA","NA","NA","NA","NA","NA","759559.683084","NA","NA","NA","758742.419958","NA","700071.004152","NA","NA","NA","NA","757919.156075","NA","Tutorial: Gaze cuing","0","0","0","yes","1024"
"undefined","undefined","undefined","undefined","white","no","0","rechts","rechts","psycho","psycho","psycho","0","uniform","NA","NA","m","32","32","1","1","NA","NA","0","0","NA","32","NA","NA","NA","NA","NA","NA","NA","32","NA","0","NA","32","NA","0","0","NA","1","NA","32","NA","Tue Feb 13 14:54:10 2018","The main experiment item","yes","","Python Experiment.osexp","/Users/johannaschuller/Documents/Uni/Master/Erstes_Semester/Python/Pruefungsleistung","no","mono","no","18","no","black","no","Ok","NA","no","Female","768","psycho","/Users/johannaschuller/Documents/Uni/Master/Erstes_Semester/Python/Pruefungsleistung/Data/subject-1.csv","psycho","Interactive Ising","3.0.7","0","m","NA","NA","NA","NA","space","NA","379.873037338","NA","NA","NA","NA","1324.35297966","NA","NA","NA","2","legacy","Mann","1024","2","48000","-16","experiment","1","odd","760559.739113","760488.856077","759571.114063","759570.642948","NA","NA","700004.75812","712039.047956","NA","759742.428064","NA","NA","NA","NA","NA","NA","NA","760942.531109","NA","NA","NA","760559.53908","NA","700071.004152","NA","NA","NA","NA","759727.427959","NA","Tutorial: Gaze cuing","0","0","0","yes","1024"
"undefined","undefined","undefined","undefined","white","no","0","rechts","rechts","psycho","psycho","psycho","0","uniform","NA","NA","z","33","33","1","1","NA","NA","0","0","NA","33","NA","NA","NA","NA","NA","NA","NA","33","NA","0","NA","33","NA","0","0","NA","1","NA","33","NA","Tue Feb 13 14:54:10 2018","The main experiment item","yes","","Python Experiment.osexp","/Users/johannaschuller/Documents/Uni/Master/Erstes_Semester/Python/Pruefungsleistung","no","mono","no","18","no","black","no","Ok","NA","no","Female","768","psycho","/Users/johannaschuller/Documents/Uni/Master/Erstes_Semester/Python/Pruefungsleistung/Data/subject-1.csv","psycho","Interactive Ising","3.0.7","0","z","NA","NA","NA","NA","space","NA","314.190864563","NA","NA","NA","NA","1324.35297966","NA","NA","NA","2","legacy","Frau","1024","2","48000","-16","experiment","1","odd","761926.254034","761855.226994","759571.114063","759570.642948","NA","NA","700004.75812","712039.047956","NA","761108.855009","NA","NA","NA","NA","NA","NA","NA","762242.88106","NA","NA","NA","761926.052094","NA","700071.004152","NA","NA","NA","NA","761094.277143","NA","Tutorial: Gaze cuing","0","0","0","yes","1024"
"undefined","undefined","undefined","undefined","white","no","0","rechts","rechts","psycho","psycho","psycho","0","uniform","NA","NA","z","34","34","1","1","NA","NA","0","0","NA","34","NA","NA","NA","NA","NA","NA","NA","34","NA","0","NA","34","NA","0","0","NA","1","NA","34","NA","Tue Feb 13 14:54:10 2018","The main experiment item","yes","","Python Experiment.osexp","/Users/johannaschuller/Documents/Uni/Master/Erstes_Semester/Python/Pruefungsleistung","no","mono","no","18","no","black","no","Ok","NA","no","Female","768","psycho","/Users/johannaschuller/Documents/Uni/Master/Erstes_Semester/Python/Pruefungsleistung/Data/subject-1.csv","psycho","Interactive Ising","3.0.7","0","z","NA","NA","NA","NA","space","NA","370.135068893","NA","NA","NA","NA","1324.35297966","NA","NA","NA","2","legacy","Frau","1024","2","48000","-16","experiment","1","odd","763243.196011","763155.436993","759571.114063","759570.642948","NA","NA","700004.75812","712039.047956","NA","762409.090996","NA","NA","NA","NA","NA","NA","NA","763615.640163","NA","NA","NA","763242.99407","NA","700071.004152","NA","NA","NA","NA","762391.095161","NA","Tutorial: Gaze cuing","0","0","0","yes","1024"
"undefined","undefined","undefined","undefined","white","no","0","links","rechts","psycho","psycho","psycho","0","uniform","NA","NA","z","35","35","1","1","NA","NA","0","0","NA","35","NA","NA","NA","NA","NA","NA","NA","35","NA","0","NA","35","NA","0","0","NA","1","NA","35","NA","Tue Feb 13 14:54:10 2018","The main experiment item","yes","","Python Experiment.osexp","/Users/johannaschuller/Documents/Uni/Master/Erstes_Semester/Python/Pruefungsleistung","no","mono","no","18","no","black","no","Ok","NA","no","Female","768","psycho","/Users/johannaschuller/Documents/Uni/Master/Erstes_Semester/Python/Pruefungsleistung/Data/subject-1.csv","psycho","Interactive Ising","3.0.7","0","z","NA","NA","NA","NA","space","NA","373.819112778","NA","NA","NA","NA","1324.35297966","NA","NA","NA","2","legacy","Frau","1024","2","48000","-16","experiment","1","odd","764592.699051","764522.848129","759571.114063","759570.642948","NA","NA","700004.75812","712039.047956","NA","763776.476145","NA","NA","NA","NA","NA","NA","NA","764969.064951","NA","NA","NA","764592.499018","NA","700071.004152","NA","NA","NA","NA","763761.949062","NA","Tutorial: Gaze cuing","0","0","0","yes","1024"
"undefined","undefined","undefined","undefined","white","no","1","rechts","links","psycho","psycho","psycho","0","uniform","NA","NA","z","36","36","1","1","NA","NA","0","0","NA","36","NA","NA","NA","NA","NA","NA","NA","36","NA","0","NA","36","NA","0","0","NA","1","NA","36","NA","Tue Feb 13 14:54:10 2018","The main experiment item","yes","","Python Experiment.osexp","/Users/johannaschuller/Documents/Uni/Master/Erstes_Semester/Python/Pruefungsleistung","no","mono","no","18","no","black","no","Ok","NA","no","Female","768","psycho","/Users/johannaschuller/Documents/Uni/Master/Erstes_Semester/Python/Pruefungsleistung/Data/subject-1.csv","psycho","Interactive Ising","3.0.7","0","z","NA","NA","NA","NA","space","NA","356.117963791","NA","NA","NA","NA","1324.35297966","NA","NA","NA","2","legacy","Frau","1024","2","48000","-16","experiment","1","odd","765959.118128","765888.534069","759571.114063","759570.642948","NA","NA","700004.75812","712039.047956","NA","765142.867088","NA","NA","NA","NA","NA","NA","NA","766317.512035","NA","NA","NA","765958.915949","NA","700071.004152","NA","NA","NA","NA","765127.47097","NA","Tutorial: Gaze cuing","0","0","0","yes","1024"
"undefined","undefined","undefined","undefined","white","no","0","rechts","rechts","psycho","psycho","psycho","0","uniform","NA","NA","m","37","37","1","1","NA","NA","0","0","NA","37","NA","NA","NA","NA","NA","NA","NA","37","NA","0","NA","37","NA","0","0","NA","1","NA","37","NA","Tue Feb 13 14:54:10 2018","The main experiment item","yes","","Python Experiment.osexp","/Users/johannaschuller/Documents/Uni/Master/Erstes_Semester/Python/Pruefungsleistung","no","mono","no","18","no","black","no","Ok","NA","no","Female","768","psycho","/Users/johannaschuller/Documents/Uni/Master/Erstes_Semester/Python/Pruefungsleistung/Data/subject-1.csv","psycho","Interactive Ising","3.0.7","0","m","NA","NA","NA","NA","space","NA","315.87600708","NA","NA","NA","NA","1324.35297966","NA","NA","NA","2","legacy","Mann","1024","2","48000","-16","experiment","1","odd","767293.437958","767222.728968","759571.114063","759570.642948","NA","NA","700004.75812","712039.047956","NA","766476.305008","NA","NA","NA","NA","NA","NA","NA","767611.617088","NA","NA","NA","767293.236971","NA","700071.004152","NA","NA","NA","NA","766464.736938","NA","Tutorial: Gaze cuing","0","0","0","yes","1024"
"undefined","undefined","undefined","undefined","white","no","0","links","links","psycho","psycho","psycho","0","uniform","NA","NA","m","38","38","1","1","NA","NA","0","0","NA","38","NA","NA","NA","NA","NA","NA","NA","38","NA","0","NA","38","NA","0","0","NA","1","NA","38","NA","Tue Feb 13 14:54:10 2018","The main experiment item","yes","","Python Experiment.osexp","/Users/johannaschuller/Documents/Uni/Master/Erstes_Semester/Python/Pruefungsleistung","no","mono","no","18","no","black","no","Ok","NA","no","Female","768","psycho","/Users/johannaschuller/Documents/Uni/Master/Erstes_Semester/Python/Pruefungsleistung/Data/subject-1.csv","psycho","Interactive Ising","3.0.7","0","m","NA","NA","NA","NA","space","NA","308.362960815","NA","NA","NA","NA","1324.35297966","NA","NA","NA","2","legacy","Mann","1024","2","48000","-16","experiment","1","odd","768592.875004","768523.925066","759571.114063","759570.642948","NA","NA","700004.75812","712039.047956","NA","767777.534962","NA","NA","NA","NA","NA","NA","NA","768903.498173","NA","NA","NA","768592.676163","NA","700071.004152","NA","NA","NA","NA","767762.97307","NA","Tutorial: Gaze cuing","0","0","0","yes","1024"
"undefined","undefined","undefined","undefined","white","no","0","links","links","psycho","psycho","psycho","0","uniform","NA","NA","m","39","39","1","1","NA","NA","0","0","NA","39","NA","NA","NA","NA","NA","NA","NA","39","NA","0","NA","39","NA","0","0","NA","1","NA","39","NA","Tue Feb 13 14:54:10 2018","The main experiment item","yes","","Python Experiment.osexp","/Users/johannaschuller/Documents/Uni/Master/Erstes_Semester/Python/Pruefungsleistung","no","mono","no","18","no","black","no","Ok","NA","no","Female","768","psycho","/Users/johannaschuller/Documents/Uni/Master/Erstes_Semester/Python/Pruefungsleistung/Data/subject-1.csv","psycho","Interactive Ising","3.0.7","0","m","NA","NA","NA","NA","space","NA","362.564086914","NA","NA","NA","NA","1324.35297966","NA","NA","NA","2","legacy","Mann","1024","2","48000","-16","experiment","1","odd","769893.533945","769823.22216","759571.114063","759570.642948","NA","NA","700004.75812","712039.047956","NA","769076.845169","NA","NA","NA","NA","NA","NA","NA","770258.418083","NA","NA","NA","769893.270969","NA","700071.004152","NA","NA","NA","NA","769055.38702","NA","Tutorial: Gaze cuing","0","0","0","yes","1024"
"undefined","undefined","undefined","undefined","white","no","0","rechts","rechts","psycho","psycho","psycho","0","uniform","NA","NA","z","40","40","1","1","NA","NA","0","0","NA","40","NA","NA","NA","NA","NA","NA","NA","40","NA","0","NA","40","NA","0","0","NA","1","NA","40","NA","Tue Feb 13 14:54:10 2018","The main experiment item","yes","","Python Experiment.osexp","/Users/johannaschuller/Documents/Uni/Master/Erstes_Semester/Python/Pruefungsleistung","no","mono","no","18","no","black","no","Ok","NA","no","Female","768","psycho","/Users/johannaschuller/Documents/Uni/Master/Erstes_Semester/Python/Pruefungsleistung/Data/subject-1.csv","psycho","Interactive Ising","3.0.7","0","z","NA","NA","NA","NA","space","NA","385.987043381","NA","NA","NA","NA","1324.35297966","NA","NA","NA","2","legacy","Frau","1024","2","48000","-16","experiment","1","odd","771260.177135","771173.337936","759571.114063","759570.642948","NA","NA","700004.75812","712039.047956","NA","770426.964998","NA","NA","NA","NA","NA","NA","NA","771648.458958","NA","NA","NA","771259.977102","NA","700071.004152","NA","NA","NA","NA","770410.372019","NA","Tutorial: Gaze cuing","0","0","0","yes","1024"
"undefined","undefined","undefined","undefined","white","no","0","links","links","psycho","psycho","psycho","0","uniform","NA","NA","z","41","41","1","1","NA","NA","0","0","NA","41","NA","NA","NA","NA","NA","NA","NA","41","NA","0","NA","41","NA","0","0","NA","1","NA","41","NA","Tue Feb 13 14:54:10 2018","The main experiment item","yes","","Python Experiment.osexp","/Users/johannaschuller/Documents/Uni/Master/Erstes_Semester/Python/Pruefungsleistung","no","mono","no","18","no","black","no","Ok","NA","no","Female","768","psycho","/Users/johannaschuller/Documents/Uni/Master/Erstes_Semester/Python/Pruefungsleistung/Data/subject-1.csv","psycho","Interactive Ising","3.0.7","0","z","NA","NA","NA","NA","space","NA","237.596035004","NA","NA","NA","NA","1324.35297966","NA","NA","NA","2","legacy","Frau","1024","2","48000","-16","experiment","1","odd","772627.58708","772556.327105","759571.114063","759570.642948","NA","NA","700004.75812","712039.047956","NA","771809.985161","NA","NA","NA","NA","NA","NA","NA","772867.448092","NA","NA","NA","772627.386093","NA","700071.004152","NA","NA","NA","NA","771801.356077","NA","Tutorial: Gaze cuing","0","0","0","yes","1024"
"undefined","undefined","undefined","undefined","white","no","1","rechts","links","psycho","psycho","psycho","0","uniform","NA","NA","m","42","42","1","1","NA","NA","0","0","NA","42","NA","NA","NA","NA","NA","NA","NA","42","NA","0","NA","42","NA","0","0","NA","1","NA","42","NA","Tue Feb 13 14:54:10 2018","The main experiment item","yes","","Python Experiment.osexp","/Users/johannaschuller/Documents/Uni/Master/Erstes_Semester/Python/Pruefungsleistung","no","mono","no","18","no","black","no","Ok","NA","no","Female","768","psycho","/Users/johannaschuller/Documents/Uni/Master/Erstes_Semester/Python/Pruefungsleistung/Data/subject-1.csv","psycho","Interactive Ising","3.0.7","0","m","NA","NA","NA","NA","space","NA","362.968921661","NA","NA","NA","NA","1324.35297966","NA","NA","NA","2","legacy","Mann","1024","2","48000","-16","experiment","1","odd","773877.110958","773790.019035","759571.114063","759570.642948","NA","NA","700004.75812","712039.047956","NA","773043.606997","NA","NA","NA","NA","NA","NA","NA","774242.557049","NA","NA","NA","773876.908064","NA","700071.004152","NA","NA","NA","NA","773025.155067","NA","Tutorial: Gaze cuing","0","0","0","yes","1024"
"undefined","undefined","undefined","undefined","white","no","1","rechts","links","psycho","psycho","psycho","0","uniform","NA","NA","z","43","43","1","1","NA","NA","0","0","NA","43","NA","NA","NA","NA","NA","NA","NA","43","NA","0","NA","43","NA","0","0","NA","1","NA","43","NA","Tue Feb 13 14:54:10 2018","The main experiment item","yes","","Python Experiment.osexp","/Users/johannaschuller/Documents/Uni/Master/Erstes_Semester/Python/Pruefungsleistung","no","mono","no","18","no","black","no","Ok","NA","no","Female","768","psycho","/Users/johannaschuller/Documents/Uni/Master/Erstes_Semester/Python/Pruefungsleistung/Data/subject-1.csv","psycho","Interactive Ising","3.0.7","0","m","NA","NA","NA","NA","space","NA","542.695999146","NA","NA","NA","NA","1324.35297966","NA","NA","NA","2","legacy","Frau","1024","2","48000","-16","experiment","1","odd","775227.450132","775157.082081","759571.114063","759570.642948","NA","NA","700004.75812","712039.047956","NA","774410.650969","NA","NA","NA","NA","NA","NA","NA","775772.44997","NA","NA","NA","775227.247953","NA","700071.004152","NA","NA","NA","NA","774388.927937","NA","Tutorial: Gaze cuing","0","0","0","yes","1024"
"undefined","undefined","undefined","undefined","white","no","0","links","links","psycho","psycho","psycho","0","uniform","NA","NA","z","44","44","1","1","NA","NA","0","0","NA","44","NA","NA","NA","NA","NA","NA","NA","44","NA","0","NA","44","NA","0","0","NA","1","NA","44","NA","Tue Feb 13 14:54:10 2018","The main experiment item","yes","","Python Experiment.osexp","/Users/johannaschuller/Documents/Uni/Master/Erstes_Semester/Python/Pruefungsleistung","no","mono","no","18","no","black","no","Ok","NA","no","Female","768","psycho","/Users/johannaschuller/Documents/Uni/Master/Erstes_Semester/Python/Pruefungsleistung/Data/subject-1.csv","psycho","Interactive Ising","3.0.7","0","m","NA","NA","NA","NA","space","NA","945.775032043","NA","NA","NA","NA","1324.35297966","NA","NA","NA","2","legacy","Frau","1024","2","48000","-16","experiment","1","odd","776761.181116","776690.101147","759571.114063","759570.642948","NA","NA","700004.75812","712039.047956","NA","775943.701029","NA","NA","NA","NA","NA","NA","NA","777709.315062","NA","NA","NA","776760.981083","NA","700071.004152","NA","NA","NA","NA","775923.635006","NA","Tutorial: Gaze cuing","0","0","0","yes","1024"
"undefined","undefined","undefined","undefined","white","no","1","rechts","links","psycho","psycho","psycho","0","uniform","NA","NA","m","45","45","1","1","NA","NA","0","0","NA","45","NA","NA","NA","NA","NA","NA","NA","45","NA","0","NA","45","NA","0","0","NA","1","NA","45","NA","Tue Feb 13 14:54:10 2018","The main experiment item","yes","","Python Experiment.osexp","/Users/johannaschuller/Documents/Uni/Master/Erstes_Semester/Python/Pruefungsleistung","no","mono","no","18","no","black","no","Ok","NA","no","Female","768","psycho","/Users/johannaschuller/Documents/Uni/Master/Erstes_Semester/Python/Pruefungsleistung/Data/subject-1.csv","psycho","Interactive Ising","3.0.7","0","m","NA","NA","NA","NA","space","NA","323.862075806","NA","NA","NA","NA","1324.35297966","NA","NA","NA","2","legacy","Mann","1024","2","48000","-16","experiment","1","odd","778710.875034","778624.54915","759571.114063","759570.642948","NA","NA","700004.75812","712039.047956","NA","777878.116131","NA","NA","NA","NA","NA","NA","NA","779037.237167","NA","NA","NA","778710.662127","NA","700071.004152","NA","NA","NA","NA","777861.199141","NA","Tutorial: Gaze cuing","0","0","0","yes","1024"
"undefined","undefined","undefined","undefined","white","no","0","links","links","psycho","psycho","psycho","0","uniform","NA","NA","m","46","46","1","1","NA","NA","0","0","NA","46","NA","NA","NA","NA","NA","NA","NA","46","NA","0","NA","46","NA","0","0","NA","1","NA","46","NA","Tue Feb 13 14:54:10 2018","The main experiment item","yes","","Python Experiment.osexp","/Users/johannaschuller/Documents/Uni/Master/Erstes_Semester/Python/Pruefungsleistung","no","mono","no","18","no","black","no","Ok","NA","no","Female","768","psycho","/Users/johannaschuller/Documents/Uni/Master/Erstes_Semester/Python/Pruefungsleistung/Data/subject-1.csv","psycho","Interactive Ising","3.0.7","0","m","NA","NA","NA","NA","space","NA","393.160820007","NA","NA","NA","NA","1324.35297966","NA","NA","NA","2","legacy","Mann","1024","2","48000","-16","experiment","1","odd","780027.797937","779957.047939","759571.114063","759570.642948","NA","NA","700004.75812","712039.047956","NA","779211.603165","NA","NA","NA","NA","NA","NA","NA","780423.827171","NA","NA","NA","780027.598143","NA","700071.004152","NA","NA","NA","NA","779201.295137","NA","Tutorial: Gaze cuing","0","0","0","yes","1024"
"undefined","undefined","undefined","undefined","white","no","1","rechts","links","psycho","psycho","psycho","0","uniform","NA","NA","m","47","47","1","1","NA","NA","0","0","NA","47","NA","NA","NA","NA","NA","NA","NA","47","NA","0","NA","47","NA","0","0","NA","1","NA","47","NA","Tue Feb 13 14:54:10 2018","The main experiment item","yes","","Python Experiment.osexp","/Users/johannaschuller/Documents/Uni/Master/Erstes_Semester/Python/Pruefungsleistung","no","mono","no","18","no","black","no","Ok","NA","no","Female","768","psycho","/Users/johannaschuller/Documents/Uni/Master/Erstes_Semester/Python/Pruefungsleistung/Data/subject-1.csv","psycho","Interactive Ising","3.0.7","0","m","NA","NA","NA","NA","space","NA","325.322151184","NA","NA","NA","NA","1324.35297966","NA","NA","NA","2","legacy","Mann","1024","2","48000","-16","experiment","1","odd","781411.715031","781341.356993","759571.114063","759570.642948","NA","NA","700004.75812","712039.047956","NA","780594.95306","NA","NA","NA","NA","NA","NA","NA","781739.355087","NA","NA","NA","781411.514044","NA","700071.004152","NA","NA","NA","NA","780583.105087","NA","Tutorial: Gaze cuing","0","0","0","yes","1024"
"undefined","undefined","undefined","undefined","white","no","0","links","rechts","psycho","psycho","psycho","0","uniform","NA","NA","m","48","48","1","1","NA","NA","0","0","NA","48","NA","NA","NA","NA","NA","NA","NA","48","NA","0","NA","48","NA","0","0","NA","1","NA","48","NA","Tue Feb 13 14:54:10 2018","The main experiment item","yes","","Python Experiment.osexp","/Users/johannaschuller/Documents/Uni/Master/Erstes_Semester/Python/Pruefungsleistung","no","mono","no","18","no","black","no","Ok","NA","no","Female","768","psycho","/Users/johannaschuller/Documents/Uni/Master/Erstes_Semester/Python/Pruefungsleistung/Data/subject-1.csv","psycho","Interactive Ising","3.0.7","0","m","NA","NA","NA","NA","space","NA","353.713989258","NA","NA","NA","NA","1324.35297966","NA","NA","NA","2","legacy","Mann","1024","2","48000","-16","experiment","1","odd","782711.110115","782641.334057","759571.114063","759570.642948","NA","NA","700004.75812","712039.047956","NA","781894.931078","NA","NA","NA","NA","NA","NA","NA","783067.176104","NA","NA","NA","782710.910082","NA","700071.004152","NA","NA","NA","NA","781884.629011","NA","Tutorial: Gaze cuing","0","0","0","yes","1024"
"undefined","undefined","undefined","undefined","white","no","0","links","links","psycho","psycho","psycho","0","uniform","NA","NA","z","49","49","1","1","NA","NA","0","0","NA","49","NA","NA","NA","NA","NA","NA","NA","49","NA","0","NA","49","NA","0","0","NA","1","NA","49","NA","Tue Feb 13 14:54:10 2018","The main experiment item","yes","","Python Experiment.osexp","/Users/johannaschuller/Documents/Uni/Master/Erstes_Semester/Python/Pruefungsleistung","no","mono","no","18","no","black","no","Ok","NA","no","Female","768","psycho","/Users/johannaschuller/Documents/Uni/Master/Erstes_Semester/Python/Pruefungsleistung/Data/subject-1.csv","psycho","Interactive Ising","3.0.7","0","z","NA","NA","NA","NA","space","NA","304.075956345","NA","NA","NA","NA","1324.35297966","NA","NA","NA","2","legacy","Frau","1024","2","48000","-16","experiment","1","odd","784044.835091","783974.756956","759571.114063","759570.642948","NA","NA","700004.75812","712039.047956","NA","783228.347063","NA","NA","NA","NA","NA","NA","NA","784351.253986","NA","NA","NA","784044.636011","NA","700071.004152","NA","NA","NA","NA","783221.24815","NA","Tutorial: Gaze cuing","0","0","0","yes","1024"
"undefined","undefined","undefined","undefined","white","no","0","rechts","rechts","psycho","psycho","psycho","0","uniform","NA","NA","m","50","50","1","1","NA","NA","0","0","NA","50","NA","NA","NA","NA","NA","NA","NA","50","NA","0","NA","50","NA","0","0","NA","1","NA","50","NA","Tue Feb 13 14:54:10 2018","The main experiment item","yes","","Python Experiment.osexp","/Users/johannaschuller/Documents/Uni/Master/Erstes_Semester/Python/Pruefungsleistung","no","mono","no","18","no","black","no","Ok","NA","no","Female","768","psycho","/Users/johannaschuller/Documents/Uni/Master/Erstes_Semester/Python/Pruefungsleistung/Data/subject-1.csv","psycho","Interactive Ising","3.0.7","0","m","NA","NA","NA","NA","space","NA","361.462116241","NA","NA","NA","NA","1324.35297966","NA","NA","NA","2","legacy","Mann","1024","2","48000","-16","experiment","1","odd","785328.240156","785258.162975","759571.114063","759570.642948","NA","NA","700004.75812","712039.047956","NA","784511.734009","NA","NA","NA","NA","NA","NA","NA","785692.162037","NA","NA","NA","785328.040123","NA","700071.004152","NA","NA","NA","NA","784497.040033","NA","Tutorial: Gaze cuing","0","0","0","yes","1024"
"undefined","undefined","undefined","undefined","white","no","0","rechts","rechts","psycho","psycho","psycho","0","uniform","NA","NA","m","51","51","1","1","NA","NA","0","0","NA","51","NA","NA","NA","NA","NA","NA","NA","51","NA","0","NA","51","NA","0","0","NA","1","NA","51","NA","Tue Feb 13 14:54:10 2018","The main experiment item","yes","","Python Experiment.osexp","/Users/johannaschuller/Documents/Uni/Master/Erstes_Semester/Python/Pruefungsleistung","no","mono","no","18","no","black","no","Ok","NA","no","Female","768","psycho","/Users/johannaschuller/Documents/Uni/Master/Erstes_Semester/Python/Pruefungsleistung/Data/subject-1.csv","psycho","Interactive Ising","3.0.7","0","m","NA","NA","NA","NA","space","NA","283.159017563","NA","NA","NA","NA","1324.35297966","NA","NA","NA","2","legacy","Mann","1024","2","48000","-16","experiment","1","odd","786678.61414","786607.964039","759571.114063","759570.642948","NA","NA","700004.75812","712039.047956","NA","785861.575127","NA","NA","NA","NA","NA","NA","NA","786964.087009","NA","NA","NA","786678.414106","NA","700071.004152","NA","NA","NA","NA","785844.345093","NA","Tutorial: Gaze cuing","0","0","0","yes","1024"
"undefined","undefined","undefined","undefined","white","no","0","links","links","psycho","psycho","psycho","0","uniform","NA","NA","m","52","52","1","1","NA","NA","0","0","NA","52","NA","NA","NA","NA","NA","NA","NA","52","NA","0","NA","52","NA","0","0","NA","1","NA","52","NA","Tue Feb 13 14:54:10 2018","The main experiment item","yes","","Python Experiment.osexp","/Users/johannaschuller/Documents/Uni/Master/Erstes_Semester/Python/Pruefungsleistung","no","mono","no","18","no","black","no","Ok","NA","no","Female","768","psycho","/Users/johannaschuller/Documents/Uni/Master/Erstes_Semester/Python/Pruefungsleistung/Data/subject-1.csv","psycho","Interactive Ising","3.0.7","0","m","NA","NA","NA","NA","space","NA","339.504003525","NA","NA","NA","NA","1324.35297966","NA","NA","NA","2","legacy","Mann","1024","2","48000","-16","experiment","1","odd","787945.188046","787874.561071","759571.114063","759570.642948","NA","NA","700004.75812","712039.047956","NA","787128.122091","NA","NA","NA","NA","NA","NA","NA","788287.156105","NA","NA","NA","787944.988012","NA","700071.004152","NA","NA","NA","NA","787112.658978","NA","Tutorial: Gaze cuing","0","0","0","yes","1024"
"undefined","undefined","undefined","undefined","white","no","0","links","rechts","psycho","psycho","psycho","0","uniform","NA","NA","z","53","53","1","1","NA","NA","0","0","NA","53","NA","NA","NA","NA","NA","NA","NA","53","NA","0","NA","53","NA","0","0","NA","1","NA","53","NA","Tue Feb 13 14:54:10 2018","The main experiment item","yes","","Python Experiment.osexp","/Users/johannaschuller/Documents/Uni/Master/Erstes_Semester/Python/Pruefungsleistung","no","mono","no","18","no","black","no","Ok","NA","no","Female","768","psycho","/Users/johannaschuller/Documents/Uni/Master/Erstes_Semester/Python/Pruefungsleistung/Data/subject-1.csv","psycho","Interactive Ising","3.0.7","0","z","NA","NA","NA","NA","space","NA","275.917053223","NA","NA","NA","NA","1324.35297966","NA","NA","NA","2","legacy","Frau","1024","2","48000","-16","experiment","1","odd","789261.815071","789190.402985","759571.114063","759570.642948","NA","NA","700004.75812","712039.047956","NA","788444.765091","NA","NA","NA","NA","NA","NA","NA","789539.993048","NA","NA","NA","789261.610031","NA","700071.004152","NA","NA","NA","NA","788436.923981","NA","Tutorial: Gaze cuing","0","0","0","yes","1024"
"undefined","undefined","undefined","undefined","white","no","0","links","rechts","psycho","psycho","psycho","0","uniform","NA","NA","m","54","54","1","1","NA","NA","0","0","NA","54","NA","NA","NA","NA","NA","NA","NA","54","NA","0","NA","54","NA","0","0","NA","1","NA","54","NA","Tue Feb 13 14:54:10 2018","The main experiment item","yes","","Python Experiment.osexp","/Users/johannaschuller/Documents/Uni/Master/Erstes_Semester/Python/Pruefungsleistung","no","mono","no","18","no","black","no","Ok","NA","no","Female","768","psycho","/Users/johannaschuller/Documents/Uni/Master/Erstes_Semester/Python/Pruefungsleistung/Data/subject-1.csv","psycho","Interactive Ising","3.0.7","0","m","NA","NA","NA","NA","space","NA","335.279941559","NA","NA","NA","NA","1324.35297966","NA","NA","NA","2","legacy","Mann","1024","2","48000","-16","experiment","1","odd","790528.783083","790458.174944","759571.114063","759570.642948","NA","NA","700004.75812","712039.047956","NA","789711.761951","NA","NA","NA","NA","NA","NA","NA","790866.832972","NA","NA","NA","790528.58305","NA","700071.004152","NA","NA","NA","NA","789691.612005","NA","Tutorial: Gaze cuing","0","0","0","yes","1024"
"undefined","undefined","undefined","undefined","white","no","0","links","rechts","psycho","psycho","psycho","0","uniform","NA","NA","m","55","55","1","1","NA","NA","0","0","NA","55","NA","NA","NA","NA","NA","NA","NA","55","NA","0","NA","55","NA","0","0","NA","1","NA","55","NA","Tue Feb 13 14:54:10 2018","The main experiment item","yes","","Python Experiment.osexp","/Users/johannaschuller/Documents/Uni/Master/Erstes_Semester/Python/Pruefungsleistung","no","mono","no","18","no","black","no","Ok","NA","no","Female","768","psycho","/Users/johannaschuller/Documents/Uni/Master/Erstes_Semester/Python/Pruefungsleistung/Data/subject-1.csv","psycho","Interactive Ising","3.0.7","0","m","NA","NA","NA","NA","space","NA","281.617879868","NA","NA","NA","NA","1324.35297966","NA","NA","NA","2","legacy","Mann","1024","2","48000","-16","experiment","1","odd","791845.896959","791774.697065","759571.114063","759570.642948","NA","NA","700004.75812","712039.047956","NA","791028.295994","NA","NA","NA","NA","NA","NA","NA","792129.838943","NA","NA","NA","791845.698118","NA","700071.004152","NA","NA","NA","NA","791015.630007","NA","Tutorial: Gaze cuing","0","0","0","yes","1024"
"undefined","undefined","undefined","undefined","white","no","1","rechts","links","psycho","psycho","psycho","0","uniform","NA","NA","m","56","56","1","1","NA","NA","0","0","NA","56","NA","NA","NA","NA","NA","NA","NA","56","NA","0","NA","56","NA","0","0","NA","1","NA","56","NA","Tue Feb 13 14:54:10 2018","The main experiment item","yes","","Python Experiment.osexp","/Users/johannaschuller/Documents/Uni/Master/Erstes_Semester/Python/Pruefungsleistung","no","mono","no","18","no","black","no","Ok","NA","no","Female","768","psycho","/Users/johannaschuller/Documents/Uni/Master/Erstes_Semester/Python/Pruefungsleistung/Data/subject-1.csv","psycho","Interactive Ising","3.0.7","0","z","NA","NA","NA","NA","space","NA","248.094081879","NA","NA","NA","NA","1324.35297966","NA","NA","NA","2","legacy","Mann","1024","2","48000","-16","experiment","1","odd","793112.468004","793042.106152","759571.114063","759570.642948","NA","NA","700004.75812","712039.047956","NA","792295.724154","NA","NA","NA","NA","NA","NA","NA","793362.952948","NA","NA","NA","793112.267017","NA","700071.004152","NA","NA","NA","NA","792279.953957","NA","Tutorial: Gaze cuing","0","0","0","yes","1024"
"undefined","undefined","undefined","undefined","white","no","0","links","rechts","psycho","psycho","psycho","0","uniform","NA","NA","z","57","57","1","1","NA","NA","0","0","NA","57","NA","NA","NA","NA","NA","NA","NA","57","NA","0","NA","57","NA","0","0","NA","1","NA","57","NA","Tue Feb 13 14:54:10 2018","The main experiment item","yes","","Python Experiment.osexp","/Users/johannaschuller/Documents/Uni/Master/Erstes_Semester/Python/Pruefungsleistung","no","mono","no","18","no","black","no","Ok","NA","no","Female","768","psycho","/Users/johannaschuller/Documents/Uni/Master/Erstes_Semester/Python/Pruefungsleistung/Data/subject-1.csv","psycho","Interactive Ising","3.0.7","0","z","NA","NA","NA","NA","space","NA","305.600881577","NA","NA","NA","NA","1324.35297966","NA","NA","NA","2","legacy","Frau","1024","2","48000","-16","experiment","1","odd","794345.977068","794275.071144","759571.114063","759570.642948","NA","NA","700004.75812","712039.047956","NA","793528.648138","NA","NA","NA","NA","NA","NA","NA","794654.226065","NA","NA","NA","794345.776081","NA","700071.004152","NA","NA","NA","NA","793514.909029","NA","Tutorial: Gaze cuing","0","0","0","yes","1024"
"undefined","undefined","undefined","undefined","white","no","0","links","rechts","psycho","psycho","psycho","0","uniform","NA","NA","z","58","58","1","1","NA","NA","0","0","NA","58","NA","NA","NA","NA","NA","NA","NA","58","NA","0","NA","58","NA","0","0","NA","1","NA","58","NA","Tue Feb 13 14:54:10 2018","The main experiment item","yes","","Python Experiment.osexp","/Users/johannaschuller/Documents/Uni/Master/Erstes_Semester/Python/Pruefungsleistung","no","mono","no","18","no","black","no","Ok","NA","no","Female","768","psycho","/Users/johannaschuller/Documents/Uni/Master/Erstes_Semester/Python/Pruefungsleistung/Data/subject-1.csv","psycho","Interactive Ising","3.0.7","0","z","NA","NA","NA","NA","space","NA","361.616134644","NA","NA","NA","NA","1324.35297966","NA","NA","NA","2","legacy","Frau","1024","2","48000","-16","experiment","1","odd","795662.76598","795574.151993","759571.114063","759570.642948","NA","NA","700004.75812","712039.047956","NA","794828.704119","NA","NA","NA","NA","NA","NA","NA","796027.090073","NA","NA","NA","795662.567139","NA","700071.004152","NA","NA","NA","NA","794818.840027","NA","Tutorial: Gaze cuing","0","0","0","yes","1024"
"undefined","undefined","undefined","undefined","white","no","0","links","links","psycho","psycho","psycho","0","uniform","NA","NA","z","59","59","1","1","NA","NA","0","0","NA","59","NA","NA","NA","NA","NA","NA","NA","59","NA","0","NA","59","NA","0","0","NA","1","NA","59","NA","Tue Feb 13 14:54:10 2018","The main experiment item","yes","","Python Experiment.osexp","/Users/johannaschuller/Documents/Uni/Master/Erstes_Semester/Python/Pruefungsleistung","no","mono","no","18","no","black","no","Ok","NA","no","Female","768","psycho","/Users/johannaschuller/Documents/Uni/Master/Erstes_Semester/Python/Pruefungsleistung/Data/subject-1.csv","psycho","Interactive Ising","3.0.7","0","z","NA","NA","NA","NA","space","NA","380.373001099","NA","NA","NA","NA","1324.35297966","NA","NA","NA","2","legacy","Frau","1024","2","48000","-16","experiment","1","odd","797013.010979","796942.631006","759571.114063","759570.642948","NA","NA","700004.75812","712039.047956","NA","796196.228981","NA","NA","NA","NA","NA","NA","NA","797395.646095","NA","NA","NA","797012.802124","NA","700071.004152","NA","NA","NA","NA","796181.792974","NA","Tutorial: Gaze cuing","0","0","0","yes","1024"
"undefined","undefined","undefined","undefined","white","no","1","rechts","links","psycho","psycho","psycho","0","uniform","NA","NA","z","60","60","1","1","NA","NA","0","0","NA","60","NA","NA","NA","NA","NA","NA","NA","60","NA","0","NA","60","NA","0","0","NA","1","NA","60","NA","Tue Feb 13 14:54:10 2018","The main experiment item","yes","","Python Experiment.osexp","/Users/johannaschuller/Documents/Uni/Master/Erstes_Semester/Python/Pruefungsleistung","no","mono","no","18","no","black","no","Ok","NA","no","Female","768","psycho","/Users/johannaschuller/Documents/Uni/Master/Erstes_Semester/Python/Pruefungsleistung/Data/subject-1.csv","psycho","Interactive Ising","3.0.7","0","z","NA","NA","NA","NA","space","NA","407.416820526","NA","NA","NA","NA","1324.35297966","NA","NA","NA","2","legacy","Frau","1024","2","48000","-16","experiment","1","odd","798380.056143","798310.019016","759571.114063","759570.642948","NA","NA","700004.75812","712039.047956","NA","797563.568115","NA","NA","NA","NA","NA","NA","NA","798790.014029","NA","NA","NA","798379.855156","NA","700071.004152","NA","NA","NA","NA","797549.602985","NA","Tutorial: Gaze cuing","0","0","0","yes","1024"
"undefined","undefined","undefined","undefined","white","no","0","rechts","rechts","psycho","psycho","psycho","0","uniform","NA","NA","z","61","61","1","1","NA","NA","0","0","NA","61","NA","NA","NA","NA","NA","NA","NA","61","NA","0","NA","61","NA","0","0","NA","1","NA","61","NA","Tue Feb 13 14:54:10 2018","The main experiment item","yes","","Python Experiment.osexp","/Users/johannaschuller/Documents/Uni/Master/Erstes_Semester/Python/Pruefungsleistung","no","mono","no","18","no","black","no","Ok","NA","no","Female","768","psycho","/Users/johannaschuller/Documents/Uni/Master/Erstes_Semester/Python/Pruefungsleistung/Data/subject-1.csv","psycho","Interactive Ising","3.0.7","0","z","NA","NA","NA","NA","space","NA","292.660951614","NA","NA","NA","NA","1324.35297966","NA","NA","NA","2","legacy","Frau","1024","2","48000","-16","experiment","1","odd","799779.79207","799708.096981","759571.114063","759570.642948","NA","NA","700004.75812","712039.047956","NA","798962.478161","NA","NA","NA","NA","NA","NA","NA","800074.795008","NA","NA","NA","799779.59013","NA","700071.004152","NA","NA","NA","NA","798945.170164","NA","Tutorial: Gaze cuing","0","0","0","yes","1024"
"undefined","undefined","undefined","undefined","white","no","0","links","rechts","psycho","psycho","psycho","0","uniform","NA","NA","m","62","62","1","1","NA","NA","0","0","NA","62","NA","NA","NA","NA","NA","NA","NA","62","NA","0","NA","62","NA","0","0","NA","1","NA","62","NA","Tue Feb 13 14:54:10 2018","The main experiment item","yes","","Python Experiment.osexp","/Users/johannaschuller/Documents/Uni/Master/Erstes_Semester/Python/Pruefungsleistung","no","mono","no","18","no","black","no","Ok","NA","no","Female","768","psycho","/Users/johannaschuller/Documents/Uni/Master/Erstes_Semester/Python/Pruefungsleistung/Data/subject-1.csv","psycho","Interactive Ising","3.0.7","0","m","NA","NA","NA","NA","space","NA","389.425039291","NA","NA","NA","NA","1324.35297966","NA","NA","NA","2","legacy","Mann","1024","2","48000","-16","experiment","1","odd","801079.918146","800993.169069","759571.114063","759570.642948","NA","NA","700004.75812","712039.047956","NA","800246.737957","NA","NA","NA","NA","NA","NA","NA","801471.933126","NA","NA","NA","801079.718113","NA","700071.004152","NA","NA","NA","NA","800236.344099","NA","Tutorial: Gaze cuing","0","0","0","yes","1024"
"undefined","undefined","undefined","undefined","white","no","1","rechts","links","psycho","psycho","psycho","0","uniform","NA","NA","z","63","63","1","1","NA","NA","0","0","NA","63","NA","NA","NA","NA","NA","NA","NA","63","NA","0","NA","63","NA","0","0","NA","1","NA","63","NA","Tue Feb 13 14:54:10 2018","The main experiment item","yes","","Python Experiment.osexp","/Users/johannaschuller/Documents/Uni/Master/Erstes_Semester/Python/Pruefungsleistung","no","mono","no","18","no","black","no","Ok","NA","no","Female","768","psycho","/Users/johannaschuller/Documents/Uni/Master/Erstes_Semester/Python/Pruefungsleistung/Data/subject-1.csv","psycho","Interactive Ising","3.0.7","0","z","NA","NA","NA","NA","space","NA","515.467882156","NA","NA","NA","NA","1324.35297966","NA","NA","NA","2","legacy","Frau","1024","2","48000","-16","experiment","1","odd","802462.844133","802392.436028","759571.114063","759570.642948","NA","NA","700004.75812","712039.047956","NA","801646.111012","NA","NA","NA","NA","NA","NA","NA","802980.733156","NA","NA","NA","802462.643147","NA","700071.004152","NA","NA","NA","NA","801634.024143","NA","Tutorial: Gaze cuing","0","0","0","yes","1024"
