"acc","accuracy","average_response_time","avg_rt","background","bidi","blickr_congruency","blickr_eins","blickr_zwei","canvas_backend","clock_backend","color_backend","compensation","coordinates","correct","correct_keyboard_response","correct_response","count_Response","count_Target_1","count_block_loop","count_block_sequence","count_end_of_experiment","count_end_of_practice","count_experiment","count_experimental_loop","count_feedback","count_fixation_dot","count_gaze_cue","count_gaze_cue_1","count_gaze_neutral","count_getting_started","count_incorrect_sound","count_instructions","count_keyboard_response","count_logger","count_neutral_gaze","count_new_form_multiple_choice","count_new_logger","count_new_sketchpad","count_new_sketchpad_1","count_new_sketchpad_2","count_new_sketchpad_3","count_practice_loop","count_reset_feedback","count_target","count_trial_sequence","count_welcome","datetime","description","disable_garbage_collection","empty_column","experiment_file","experiment_path","font_bold","font_family","font_italic","font_size","font_underline","foreground","form_clicks","form_response","form_var","fullscreen","gender_subj","height","keyboard_backend","logfile","mouse_backend","opensesame_codename","opensesame_version","repeat_cycle","response","response_feedback","response_incorrect_sound","response_keyboard_response","response_new_sketchpad_1","response_new_sketchpad_2","response_new_sketchpad_3","response_time","response_time_feedback","response_time_incorrect_sound","response_time_keyboard_response","response_time_new_sketchpad_1","response_time_new_sketchpad_2","response_time_new_sketchpad_3","response_time_welcome","response_welcome","round_decimals","sampler_backend","sex","sound_buf_size","sound_channels","sound_freq","sound_sample_size","start","subject_nr","subject_parity","time_Response","time_Target_1","time_block_loop","time_block_sequence","time_end_of_experiment","time_end_of_practice","time_experiment","time_experimental_loop","time_feedback","time_fixation_dot","time_gaze_cue","time_gaze_cue_1","time_gaze_neutral","time_getting_started","time_incorrect_sound","time_instructions","time_keyboard_response","time_logger","time_neutral_gaze","time_new_form_multiple_choice","time_new_logger","time_new_sketchpad","time_new_sketchpad_1","time_new_sketchpad_2","time_new_sketchpad_3","time_practice_loop","time_reset_feedback","time_target","time_trial_sequence","time_welcome","title","total_correct","total_response_time","total_responses","uniform_coordinates","width"
"undefined","undefined","undefined","undefined","white","no","0","links","links","psycho","psycho","psycho","0","uniform","NA","NA","z","0","0","0","0","NA","NA","0","0","NA","0","NA","NA","NA","NA","NA","NA","NA","0","NA","0","NA","0","NA","0","0","NA","0","NA","0","NA","Tue Feb 13 14:51:50 2018","The main experiment item","yes","","Python Experiment.osexp","/Users/johannaschuller/Documents/Uni/Master/Erstes_Semester/Python/Pruefungsleistung","no","mono","no","18","no","black","no","Ok","NA","no","Female","768","psycho","/Users/johannaschuller/Documents/Uni/Master/Erstes_Semester/Python/Pruefungsleistung/Data/subject-0.csv","psycho","Interactive Ising","3.0.7","0","z","NA","NA","NA","NA","space","NA","440.217018127","NA","NA","NA","NA","10246.3171482","NA","NA","NA","2","legacy","Frau","1024","2","48000","-16","experiment","0","even","575191.15901","575103.152037","574162.672997","574162.425995","NA","NA","560425.660133","574161.808968","NA","574356.709957","NA","NA","NA","NA","NA","NA","NA","575634.022951","NA","NA","NA","575190.943956","NA","560490.360975","NA","NA","NA","NA","574339.432955","NA","Tutorial: Gaze cuing","0","0","0","yes","1024"
"undefined","undefined","undefined","undefined","white","no","0","links","rechts","psycho","psycho","psycho","0","uniform","NA","NA","m","1","1","0","0","NA","NA","0","0","NA","1","NA","NA","NA","NA","NA","NA","NA","1","NA","0","NA","1","NA","0","0","NA","0","NA","1","NA","Tue Feb 13 14:51:50 2018","The main experiment item","yes","","Python Experiment.osexp","/Users/johannaschuller/Documents/Uni/Master/Erstes_Semester/Python/Pruefungsleistung","no","mono","no","18","no","black","no","Ok","NA","no","Female","768","psycho","/Users/johannaschuller/Documents/Uni/Master/Erstes_Semester/Python/Pruefungsleistung/Data/subject-0.csv","psycho","Interactive Ising","3.0.7","0","m","NA","NA","NA","NA","space","NA","336.123943329","NA","NA","NA","NA","10246.3171482","NA","NA","NA","2","legacy","Mann","1024","2","48000","-16","experiment","0","even","576657.356977","576570.616961","574162.672997","574162.425995","NA","NA","560425.660133","574161.808968","NA","575824.257135","NA","NA","NA","NA","NA","NA","NA","576995.733976","NA","NA","NA","576657.155991","NA","560490.360975","NA","NA","NA","NA","575804.841042","NA","Tutorial: Gaze cuing","0","0","0","yes","1024"
"undefined","undefined","undefined","undefined","white","no","1","rechts","links","psycho","psycho","psycho","0","uniform","NA","NA","z","2","2","0","0","NA","NA","0","0","NA","2","NA","NA","NA","NA","NA","NA","NA","2","NA","0","NA","2","NA","0","0","NA","0","NA","2","NA","Tue Feb 13 14:51:50 2018","The main experiment item","yes","","Python Experiment.osexp","/Users/johannaschuller/Documents/Uni/Master/Erstes_Semester/Python/Pruefungsleistung","no","mono","no","18","no","black","no","Ok","NA","no","Female","768","psycho","/Users/johannaschuller/Documents/Uni/Master/Erstes_Semester/Python/Pruefungsleistung/Data/subject-0.csv","psycho","Interactive Ising","3.0.7","0","m","NA","NA","NA","NA","space","NA","376.348018646","NA","NA","NA","NA","10246.3171482","NA","NA","NA","2","legacy","Frau","1024","2","48000","-16","experiment","0","even","577991.073132","577903.964996","574162.672997","574162.425995","NA","NA","560425.660133","574161.808968","NA","577157.56917","NA","NA","NA","NA","NA","NA","NA","578369.752169","NA","NA","NA","577990.874052","NA","560490.360975","NA","NA","NA","NA","577149.62101","NA","Tutorial: Gaze cuing","0","0","0","yes","1024"
"undefined","undefined","undefined","undefined","white","no","0","links","rechts","psycho","psycho","psycho","0","uniform","NA","NA","z","3","3","0","0","NA","NA","0","0","NA","3","NA","NA","NA","NA","NA","NA","NA","3","NA","0","NA","3","NA","0","0","NA","0","NA","3","NA","Tue Feb 13 14:51:50 2018","The main experiment item","yes","","Python Experiment.osexp","/Users/johannaschuller/Documents/Uni/Master/Erstes_Semester/Python/Pruefungsleistung","no","mono","no","18","no","black","no","Ok","NA","no","Female","768","psycho","/Users/johannaschuller/Documents/Uni/Master/Erstes_Semester/Python/Pruefungsleistung/Data/subject-0.csv","psycho","Interactive Ising","3.0.7","0","z","NA","NA","NA","NA","space","NA","356.721878052","NA","NA","NA","NA","10246.3171482","NA","NA","NA","2","legacy","Frau","1024","2","48000","-16","experiment","0","even","579357.610941","579287.485123","574162.672997","574162.425995","NA","NA","560425.660133","574161.808968","NA","578541.109085","NA","NA","NA","NA","NA","NA","NA","579716.67695","NA","NA","NA","579357.411146","NA","560490.360975","NA","NA","NA","NA","578529.004097","NA","Tutorial: Gaze cuing","0","0","0","yes","1024"
"undefined","undefined","undefined","undefined","white","no","0","links","rechts","psycho","psycho","psycho","0","uniform","NA","NA","m","4","4","0","0","NA","NA","0","0","NA","4","NA","NA","NA","NA","NA","NA","NA","4","NA","0","NA","4","NA","0","0","NA","0","NA","4","NA","Tue Feb 13 14:51:50 2018","The main experiment item","yes","","Python Experiment.osexp","/Users/johannaschuller/Documents/Uni/Master/Erstes_Semester/Python/Pruefungsleistung","no","mono","no","18","no","black","no","Ok","NA","no","Female","768","psycho","/Users/johannaschuller/Documents/Uni/Master/Erstes_Semester/Python/Pruefungsleistung/Data/subject-0.csv","psycho","Interactive Ising","3.0.7","0","m","NA","NA","NA","NA","space","NA","381.479978561","NA","NA","NA","NA","10246.3171482","NA","NA","NA","2","legacy","Mann","1024","2","48000","-16","experiment","0","even","580707.865","580637.375116","574162.672997","574162.425995","NA","NA","560425.660133","574161.808968","NA","579890.92803","NA","NA","NA","NA","NA","NA","NA","581091.746092","NA","NA","NA","580707.664013","NA","560490.360975","NA","NA","NA","NA","579877.285957","NA","Tutorial: Gaze cuing","0","0","0","yes","1024"
"undefined","undefined","undefined","undefined","white","no","1","rechts","links","psycho","psycho","psycho","0","uniform","NA","NA","m","5","5","0","0","NA","NA","0","0","NA","5","NA","NA","NA","NA","NA","NA","NA","5","NA","0","NA","5","NA","0","0","NA","0","NA","5","NA","Tue Feb 13 14:51:50 2018","The main experiment item","yes","","Python Experiment.osexp","/Users/johannaschuller/Documents/Uni/Master/Erstes_Semester/Python/Pruefungsleistung","no","mono","no","18","no","black","no","Ok","NA","no","Female","768","psycho","/Users/johannaschuller/Documents/Uni/Master/Erstes_Semester/Python/Pruefungsleistung/Data/subject-0.csv","psycho","Interactive Ising","3.0.7","0","m","NA","NA","NA","NA","space","NA","290.56096077","NA","NA","NA","NA","10246.3171482","NA","NA","NA","2","legacy","Mann","1024","2","48000","-16","experiment","0","even","582074.618101","582004.950047","574162.672997","574162.425995","NA","NA","560425.660133","574161.808968","NA","581258.540154","NA","NA","NA","NA","NA","NA","NA","582367.702007","NA","NA","NA","582074.418068","NA","560490.360975","NA","NA","NA","NA","581243.397951","NA","Tutorial: Gaze cuing","0","0","0","yes","1024"
"undefined","undefined","undefined","undefined","white","no","0","links","links","psycho","psycho","psycho","0","uniform","NA","NA","m","6","6","0","0","NA","NA","0","0","NA","6","NA","NA","NA","NA","NA","NA","NA","6","NA","0","NA","6","NA","0","0","NA","0","NA","6","NA","Tue Feb 13 14:51:50 2018","The main experiment item","yes","","Python Experiment.osexp","/Users/johannaschuller/Documents/Uni/Master/Erstes_Semester/Python/Pruefungsleistung","no","mono","no","18","no","black","no","Ok","NA","no","Female","768","psycho","/Users/johannaschuller/Documents/Uni/Master/Erstes_Semester/Python/Pruefungsleistung/Data/subject-0.csv","psycho","Interactive Ising","3.0.7","0","m","NA","NA","NA","NA","space","NA","334.039926529","NA","NA","NA","NA","10246.3171482","NA","NA","NA","2","legacy","Mann","1024","2","48000","-16","experiment","0","even","583358.170033","583288.031101","574162.672997","574162.425995","NA","NA","560425.660133","574161.808968","NA","582541.5411","NA","NA","NA","NA","NA","NA","NA","583694.602966","NA","NA","NA","583357.968092","NA","560490.360975","NA","NA","NA","NA","582524.492979","NA","Tutorial: Gaze cuing","0","0","0","yes","1024"
"undefined","undefined","undefined","undefined","white","no","0","links","links","psycho","psycho","psycho","0","uniform","NA","NA","z","7","7","0","0","NA","NA","0","0","NA","7","NA","NA","NA","NA","NA","NA","NA","7","NA","0","NA","7","NA","0","0","NA","0","NA","7","NA","Tue Feb 13 14:51:50 2018","The main experiment item","yes","","Python Experiment.osexp","/Users/johannaschuller/Documents/Uni/Master/Erstes_Semester/Python/Pruefungsleistung","no","mono","no","18","no","black","no","Ok","NA","no","Female","768","psycho","/Users/johannaschuller/Documents/Uni/Master/Erstes_Semester/Python/Pruefungsleistung/Data/subject-0.csv","psycho","Interactive Ising","3.0.7","0","z","NA","NA","NA","NA","space","NA","343.321084976","NA","NA","NA","NA","10246.3171482","NA","NA","NA","2","legacy","Frau","1024","2","48000","-16","experiment","0","even","584691.97011","584621.407986","574162.672997","574162.425995","NA","NA","560425.660133","574161.808968","NA","583875.154018","NA","NA","NA","NA","NA","NA","NA","585037.721157","NA","NA","NA","584691.769123","NA","560490.360975","NA","NA","NA","NA","583854.989052","NA","Tutorial: Gaze cuing","0","0","0","yes","1024"
"undefined","undefined","undefined","undefined","white","no","0","rechts","rechts","psycho","psycho","psycho","0","uniform","NA","NA","m","8","8","0","0","NA","NA","0","0","NA","8","NA","NA","NA","NA","NA","NA","NA","8","NA","0","NA","8","NA","0","0","NA","0","NA","8","NA","Tue Feb 13 14:51:50 2018","The main experiment item","yes","","Python Experiment.osexp","/Users/johannaschuller/Documents/Uni/Master/Erstes_Semester/Python/Pruefungsleistung","no","mono","no","18","no","black","no","Ok","NA","no","Female","768","psycho","/Users/johannaschuller/Documents/Uni/Master/Erstes_Semester/Python/Pruefungsleistung/Data/subject-0.csv","psycho","Interactive Ising","3.0.7","0","m","NA","NA","NA","NA","space","NA","353.804111481","NA","NA","NA","NA","10246.3171482","NA","NA","NA","2","legacy","Mann","1024","2","48000","-16","experiment","0","even","586025.354147","585954.658985","574162.672997","574162.425995","NA","NA","560425.660133","574161.808968","NA","585208.276033","NA","NA","NA","NA","NA","NA","NA","586381.446123","NA","NA","NA","586025.15316","NA","560490.360975","NA","NA","NA","NA","585198.044062","NA","Tutorial: Gaze cuing","0","0","0","yes","1024"
"undefined","undefined","undefined","undefined","white","no","0","links","links","psycho","psycho","psycho","0","uniform","NA","NA","m","9","9","0","0","NA","NA","0","0","NA","9","NA","NA","NA","NA","NA","NA","NA","9","NA","0","NA","9","NA","0","0","NA","0","NA","9","NA","Tue Feb 13 14:51:50 2018","The main experiment item","yes","","Python Experiment.osexp","/Users/johannaschuller/Documents/Uni/Master/Erstes_Semester/Python/Pruefungsleistung","no","mono","no","18","no","black","no","Ok","NA","no","Female","768","psycho","/Users/johannaschuller/Documents/Uni/Master/Erstes_Semester/Python/Pruefungsleistung/Data/subject-0.csv","psycho","Interactive Ising","3.0.7","0","z","NA","NA","NA","NA","space","NA","384.107112885","NA","NA","NA","NA","10246.3171482","NA","NA","NA","2","legacy","Mann","1024","2","48000","-16","experiment","0","even","587359.107018","587287.800074","574162.672997","574162.425995","NA","NA","560425.660133","574161.808968","NA","586541.429996","NA","NA","NA","NA","NA","NA","NA","587745.711088","NA","NA","NA","587358.906031","NA","560490.360975","NA","NA","NA","NA","586533.415079","NA","Tutorial: Gaze cuing","0","0","0","yes","1024"
"undefined","undefined","undefined","undefined","white","no","0","rechts","rechts","psycho","psycho","psycho","0","uniform","NA","NA","z","10","10","0","0","NA","NA","0","0","NA","10","NA","NA","NA","NA","NA","NA","NA","10","NA","0","NA","10","NA","0","0","NA","0","NA","10","NA","Tue Feb 13 14:51:50 2018","The main experiment item","yes","","Python Experiment.osexp","/Users/johannaschuller/Documents/Uni/Master/Erstes_Semester/Python/Pruefungsleistung","no","mono","no","18","no","black","no","Ok","NA","no","Female","768","psycho","/Users/johannaschuller/Documents/Uni/Master/Erstes_Semester/Python/Pruefungsleistung/Data/subject-0.csv","psycho","Interactive Ising","3.0.7","0","z","NA","NA","NA","NA","space","NA","291.039943695","NA","NA","NA","NA","10246.3171482","NA","NA","NA","2","legacy","Frau","1024","2","48000","-16","experiment","0","even","588742.113113","588655.223131","574162.672997","574162.425995","NA","NA","560425.660133","574161.808968","NA","587908.882141","NA","NA","NA","NA","NA","NA","NA","589035.51507","NA","NA","NA","588741.91308","NA","560490.360975","NA","NA","NA","NA","587898.386002","NA","Tutorial: Gaze cuing","0","0","0","yes","1024"
"undefined","undefined","undefined","undefined","white","no","0","links","links","psycho","psycho","psycho","0","uniform","NA","NA","z","11","11","0","0","NA","NA","0","0","NA","11","NA","NA","NA","NA","NA","NA","NA","11","NA","0","NA","11","NA","0","0","NA","0","NA","11","NA","Tue Feb 13 14:51:50 2018","The main experiment item","yes","","Python Experiment.osexp","/Users/johannaschuller/Documents/Uni/Master/Erstes_Semester/Python/Pruefungsleistung","no","mono","no","18","no","black","no","Ok","NA","no","Female","768","psycho","/Users/johannaschuller/Documents/Uni/Master/Erstes_Semester/Python/Pruefungsleistung/Data/subject-0.csv","psycho","Interactive Ising","3.0.7","0","z","NA","NA","NA","NA","space","NA","317.040920258","NA","NA","NA","NA","10246.3171482","NA","NA","NA","2","legacy","Frau","1024","2","48000","-16","experiment","0","even","590026.116133","589955.497026","574162.672997","574162.425995","NA","NA","560425.660133","574161.808968","NA","589209.112167","NA","NA","NA","NA","NA","NA","NA","590345.467091","NA","NA","NA","590025.9161","NA","560490.360975","NA","NA","NA","NA","589188.601971","NA","Tutorial: Gaze cuing","0","0","0","yes","1024"
"undefined","undefined","undefined","undefined","white","no","0","links","rechts","psycho","psycho","psycho","0","uniform","NA","NA","z","12","12","0","0","NA","NA","0","0","NA","12","NA","NA","NA","NA","NA","NA","NA","12","NA","0","NA","12","NA","0","0","NA","0","NA","12","NA","Tue Feb 13 14:51:50 2018","The main experiment item","yes","","Python Experiment.osexp","/Users/johannaschuller/Documents/Uni/Master/Erstes_Semester/Python/Pruefungsleistung","no","mono","no","18","no","black","no","Ok","NA","no","Female","768","psycho","/Users/johannaschuller/Documents/Uni/Master/Erstes_Semester/Python/Pruefungsleistung/Data/subject-0.csv","psycho","Interactive Ising","3.0.7","0","z","NA","NA","NA","NA","space","NA","323.683977127","NA","NA","NA","NA","10246.3171482","NA","NA","NA","2","legacy","Frau","1024","2","48000","-16","experiment","0","even","591359.325171","591272.819996","574162.672997","574162.425995","NA","NA","560425.660133","574161.808968","NA","590526.409149","NA","NA","NA","NA","NA","NA","NA","591685.465097","NA","NA","NA","591359.125137","NA","560490.360975","NA","NA","NA","NA","590505.381107","NA","Tutorial: Gaze cuing","0","0","0","yes","1024"
"undefined","undefined","undefined","undefined","white","no","0","links","rechts","psycho","psycho","psycho","0","uniform","NA","NA","z","13","13","0","0","NA","NA","0","0","NA","13","NA","NA","NA","NA","NA","NA","NA","13","NA","0","NA","13","NA","0","0","NA","0","NA","13","NA","Tue Feb 13 14:51:50 2018","The main experiment item","yes","","Python Experiment.osexp","/Users/johannaschuller/Documents/Uni/Master/Erstes_Semester/Python/Pruefungsleistung","no","mono","no","18","no","black","no","Ok","NA","no","Female","768","psycho","/Users/johannaschuller/Documents/Uni/Master/Erstes_Semester/Python/Pruefungsleistung/Data/subject-0.csv","psycho","Interactive Ising","3.0.7","0","z","NA","NA","NA","NA","space","NA","364.073038101","NA","NA","NA","NA","10246.3171482","NA","NA","NA","2","legacy","Frau","1024","2","48000","-16","experiment","0","even","592675.857067","592605.245113","574162.672997","574162.425995","NA","NA","560425.660133","574161.808968","NA","591858.906031","NA","NA","NA","NA","NA","NA","NA","593042.449951","NA","NA","NA","592675.657034","NA","560490.360975","NA","NA","NA","NA","591846.377134","NA","Tutorial: Gaze cuing","0","0","0","yes","1024"
"undefined","undefined","undefined","undefined","white","no","0","rechts","rechts","psycho","psycho","psycho","0","uniform","NA","NA","m","14","14","0","0","NA","NA","0","0","NA","14","NA","NA","NA","NA","NA","NA","NA","14","NA","0","NA","14","NA","0","0","NA","0","NA","14","NA","Tue Feb 13 14:51:50 2018","The main experiment item","yes","","Python Experiment.osexp","/Users/johannaschuller/Documents/Uni/Master/Erstes_Semester/Python/Pruefungsleistung","no","mono","no","18","no","black","no","Ok","NA","no","Female","768","psycho","/Users/johannaschuller/Documents/Uni/Master/Erstes_Semester/Python/Pruefungsleistung/Data/subject-0.csv","psycho","Interactive Ising","3.0.7","0","m","NA","NA","NA","NA","space","NA","560.660839081","NA","NA","NA","NA","10246.3171482","NA","NA","NA","2","legacy","Mann","1024","2","48000","-16","experiment","0","even","594043.204069","593972.227097","574162.672997","574162.425995","NA","NA","560425.660133","574161.808968","NA","593225.762129","NA","NA","NA","NA","NA","NA","NA","594606.359005","NA","NA","NA","594043.004036","NA","560490.360975","NA","NA","NA","NA","593209.105015","NA","Tutorial: Gaze cuing","0","0","0","yes","1024"
"undefined","undefined","undefined","undefined","white","no","0","rechts","rechts","psycho","psycho","psycho","0","uniform","NA","NA","m","15","15","0","0","NA","NA","0","0","NA","15","NA","NA","NA","NA","NA","NA","NA","15","NA","0","NA","15","NA","0","0","NA","0","NA","15","NA","Tue Feb 13 14:51:50 2018","The main experiment item","yes","","Python Experiment.osexp","/Users/johannaschuller/Documents/Uni/Master/Erstes_Semester/Python/Pruefungsleistung","no","mono","no","18","no","black","no","Ok","NA","no","Female","768","psycho","/Users/johannaschuller/Documents/Uni/Master/Erstes_Semester/Python/Pruefungsleistung/Data/subject-0.csv","psycho","Interactive Ising","3.0.7","0","m","NA","NA","NA","NA","space","NA","498.657941818","NA","NA","NA","NA","10246.3171482","NA","NA","NA","2","legacy","Mann","1024","2","48000","-16","experiment","0","even","595593.322992","595522.271156","574162.672997","574162.425995","NA","NA","560425.660133","574161.808968","NA","594775.90394","NA","NA","NA","NA","NA","NA","NA","596094.274998","NA","NA","NA","595593.125105","NA","560490.360975","NA","NA","NA","NA","594755.939007","NA","Tutorial: Gaze cuing","0","0","0","yes","1024"
"undefined","undefined","undefined","undefined","white","no","1","rechts","links","psycho","psycho","psycho","0","uniform","NA","NA","m","16","16","0","0","NA","NA","0","0","NA","16","NA","NA","NA","NA","NA","NA","NA","16","NA","0","NA","16","NA","0","0","NA","0","NA","16","NA","Tue Feb 13 14:51:50 2018","The main experiment item","yes","","Python Experiment.osexp","/Users/johannaschuller/Documents/Uni/Master/Erstes_Semester/Python/Pruefungsleistung","no","mono","no","18","no","black","no","Ok","NA","no","Female","768","psycho","/Users/johannaschuller/Documents/Uni/Master/Erstes_Semester/Python/Pruefungsleistung/Data/subject-0.csv","psycho","Interactive Ising","3.0.7","0","m","NA","NA","NA","NA","space","NA","298.131942749","NA","NA","NA","NA","10246.3171482","NA","NA","NA","2","legacy","Mann","1024","2","48000","-16","experiment","0","even","597092.685938","597005.500078","574162.672997","574162.425995","NA","NA","560425.660133","574161.808968","NA","596259.134054","NA","NA","NA","NA","NA","NA","NA","597393.460989","NA","NA","NA","597092.487097","NA","560490.360975","NA","NA","NA","NA","596250.025034","NA","Tutorial: Gaze cuing","0","0","0","yes","1024"
"undefined","undefined","undefined","undefined","white","no","0","links","links","psycho","psycho","psycho","0","uniform","NA","NA","z","17","17","0","0","NA","NA","0","0","NA","17","NA","NA","NA","NA","NA","NA","NA","17","NA","0","NA","17","NA","0","0","NA","0","NA","17","NA","Tue Feb 13 14:51:50 2018","The main experiment item","yes","","Python Experiment.osexp","/Users/johannaschuller/Documents/Uni/Master/Erstes_Semester/Python/Pruefungsleistung","no","mono","no","18","no","black","no","Ok","NA","no","Female","768","psycho","/Users/johannaschuller/Documents/Uni/Master/Erstes_Semester/Python/Pruefungsleistung/Data/subject-0.csv","psycho","Interactive Ising","3.0.7","0","z","NA","NA","NA","NA","space","NA","339.468955994","NA","NA","NA","NA","10246.3171482","NA","NA","NA","2","legacy","Frau","1024","2","48000","-16","experiment","0","even","598393.429995","598321.571112","574162.672997","574162.425995","NA","NA","560425.660133","574161.808968","NA","597575.891018","NA","NA","NA","NA","NA","NA","NA","598735.280037","NA","NA","NA","598393.229961","NA","560490.360975","NA","NA","NA","NA","597555.020094","NA","Tutorial: Gaze cuing","0","0","0","yes","1024"
"undefined","undefined","undefined","undefined","white","no","1","rechts","links","psycho","psycho","psycho","0","uniform","NA","NA","z","18","18","0","0","NA","NA","0","0","NA","18","NA","NA","NA","NA","NA","NA","NA","18","NA","0","NA","18","NA","0","0","NA","0","NA","18","NA","Tue Feb 13 14:51:50 2018","The main experiment item","yes","","Python Experiment.osexp","/Users/johannaschuller/Documents/Uni/Master/Erstes_Semester/Python/Pruefungsleistung","no","mono","no","18","no","black","no","Ok","NA","no","Female","768","psycho","/Users/johannaschuller/Documents/Uni/Master/Erstes_Semester/Python/Pruefungsleistung/Data/subject-0.csv","psycho","Interactive Ising","3.0.7","0","z","NA","NA","NA","NA","space","NA","446.83599472","NA","NA","NA","NA","10246.3171482","NA","NA","NA","2","legacy","Frau","1024","2","48000","-16","experiment","0","even","599727.023125","599655.960083","574162.672997","574162.425995","NA","NA","560425.660133","574161.808968","NA","598909.453154","NA","NA","NA","NA","NA","NA","NA","600176.192999","NA","NA","NA","599726.822138","NA","560490.360975","NA","NA","NA","NA","598898.143053","NA","Tutorial: Gaze cuing","0","0","0","yes","1024"
"undefined","undefined","undefined","undefined","white","no","0","links","rechts","psycho","psycho","psycho","0","uniform","NA","NA","m","19","19","0","0","NA","NA","0","0","NA","19","NA","NA","NA","NA","NA","NA","NA","19","NA","0","NA","19","NA","0","0","NA","0","NA","19","NA","Tue Feb 13 14:51:50 2018","The main experiment item","yes","","Python Experiment.osexp","/Users/johannaschuller/Documents/Uni/Master/Erstes_Semester/Python/Pruefungsleistung","no","mono","no","18","no","black","no","Ok","NA","no","Female","768","psycho","/Users/johannaschuller/Documents/Uni/Master/Erstes_Semester/Python/Pruefungsleistung/Data/subject-0.csv","psycho","Interactive Ising","3.0.7","0","m","NA","NA","NA","NA","space","NA","356.907844543","NA","NA","NA","NA","10246.3171482","NA","NA","NA","2","legacy","Mann","1024","2","48000","-16","experiment","0","even","601176.813126","601107.155085","574162.672997","574162.425995","NA","NA","560425.660133","574161.808968","NA","600360.711098","NA","NA","NA","NA","NA","NA","NA","601536.231041","NA","NA","NA","601176.614046","NA","560490.360975","NA","NA","NA","NA","600338.478088","NA","Tutorial: Gaze cuing","0","0","0","yes","1024"
"undefined","undefined","undefined","undefined","white","no","0","links","rechts","psycho","psycho","psycho","0","uniform","NA","NA","m","20","20","0","0","NA","NA","0","0","NA","20","NA","NA","NA","NA","NA","NA","NA","20","NA","0","NA","20","NA","0","0","NA","0","NA","20","NA","Tue Feb 13 14:51:50 2018","The main experiment item","yes","","Python Experiment.osexp","/Users/johannaschuller/Documents/Uni/Master/Erstes_Semester/Python/Pruefungsleistung","no","mono","no","18","no","black","no","Ok","NA","no","Female","768","psycho","/Users/johannaschuller/Documents/Uni/Master/Erstes_Semester/Python/Pruefungsleistung/Data/subject-0.csv","psycho","Interactive Ising","3.0.7","0","m","NA","NA","NA","NA","space","NA","360.02612114","NA","NA","NA","NA","10246.3171482","NA","NA","NA","2","legacy","Mann","1024","2","48000","-16","experiment","0","even","602527.431965","602454.838037","574162.672997","574162.425995","NA","NA","560425.660133","574161.808968","NA","601709.519148","NA","NA","NA","NA","NA","NA","NA","602889.971018","NA","NA","NA","602527.107954","NA","560490.360975","NA","NA","NA","NA","601700.5651","NA","Tutorial: Gaze cuing","0","0","0","yes","1024"
"undefined","undefined","undefined","undefined","white","no","0","links","rechts","psycho","psycho","psycho","0","uniform","NA","NA","z","21","21","0","0","NA","NA","0","0","NA","21","NA","NA","NA","NA","NA","NA","NA","21","NA","0","NA","21","NA","0","0","NA","0","NA","21","NA","Tue Feb 13 14:51:50 2018","The main experiment item","yes","","Python Experiment.osexp","/Users/johannaschuller/Documents/Uni/Master/Erstes_Semester/Python/Pruefungsleistung","no","mono","no","18","no","black","no","Ok","NA","no","Female","768","psycho","/Users/johannaschuller/Documents/Uni/Master/Erstes_Semester/Python/Pruefungsleistung/Data/subject-0.csv","psycho","Interactive Ising","3.0.7","0","m","NA","NA","NA","NA","space","NA","358.801841736","NA","NA","NA","NA","10246.3171482","NA","NA","NA","2","legacy","Frau","1024","2","48000","-16","experiment","0","even","603876.80006","603806.483984","574162.672997","574162.425995","NA","NA","560425.660133","574161.808968","NA","603060.093164","NA","NA","NA","NA","NA","NA","NA","604237.935066","NA","NA","NA","603876.599073","NA","560490.360975","NA","NA","NA","NA","603054.317951","NA","Tutorial: Gaze cuing","0","0","0","yes","1024"
"undefined","undefined","undefined","undefined","white","no","0","rechts","rechts","psycho","psycho","psycho","0","uniform","NA","NA","m","22","22","0","0","NA","NA","0","0","NA","22","NA","NA","NA","NA","NA","NA","NA","22","NA","0","NA","22","NA","0","0","NA","0","NA","22","NA","Tue Feb 13 14:51:50 2018","The main experiment item","yes","","Python Experiment.osexp","/Users/johannaschuller/Documents/Uni/Master/Erstes_Semester/Python/Pruefungsleistung","no","mono","no","18","no","black","no","Ok","NA","no","Female","768","psycho","/Users/johannaschuller/Documents/Uni/Master/Erstes_Semester/Python/Pruefungsleistung/Data/subject-0.csv","psycho","Interactive Ising","3.0.7","0","m","NA","NA","NA","NA","space","NA","435.455799103","NA","NA","NA","NA","10246.3171482","NA","NA","NA","2","legacy","Mann","1024","2","48000","-16","experiment","0","even","605227.082968","605156.723976","574162.672997","574162.425995","NA","NA","560425.660133","574161.808968","NA","604410.364151","NA","NA","NA","NA","NA","NA","NA","605664.858103","NA","NA","NA","605226.807117","NA","560490.360975","NA","NA","NA","NA","604393.890142","NA","Tutorial: Gaze cuing","0","0","0","yes","1024"
"undefined","undefined","undefined","undefined","white","no","0","rechts","rechts","psycho","psycho","psycho","0","uniform","NA","NA","z","23","23","0","0","NA","NA","0","0","NA","23","NA","NA","NA","NA","NA","NA","NA","23","NA","0","NA","23","NA","0","0","NA","0","NA","23","NA","Tue Feb 13 14:51:50 2018","The main experiment item","yes","","Python Experiment.osexp","/Users/johannaschuller/Documents/Uni/Master/Erstes_Semester/Python/Pruefungsleistung","no","mono","no","18","no","black","no","Ok","NA","no","Female","768","psycho","/Users/johannaschuller/Documents/Uni/Master/Erstes_Semester/Python/Pruefungsleistung/Data/subject-0.csv","psycho","Interactive Ising","3.0.7","0","z","NA","NA","NA","NA","space","NA","330.165147781","NA","NA","NA","NA","10246.3171482","NA","NA","NA","2","legacy","Frau","1024","2","48000","-16","experiment","0","even","606644.505024","606573.058128","574162.672997","574162.425995","NA","NA","560425.660133","574161.808968","NA","605826.689005","NA","NA","NA","NA","NA","NA","NA","606977.190018","NA","NA","NA","606644.309044","NA","560490.360975","NA","NA","NA","NA","605818.592072","NA","Tutorial: Gaze cuing","0","0","0","yes","1024"
"undefined","undefined","undefined","undefined","white","no","0","links","links","psycho","psycho","psycho","0","uniform","NA","NA","m","24","24","0","0","NA","NA","0","0","NA","24","NA","NA","NA","NA","NA","NA","NA","24","NA","0","NA","24","NA","0","0","NA","0","NA","24","NA","Tue Feb 13 14:51:50 2018","The main experiment item","yes","","Python Experiment.osexp","/Users/johannaschuller/Documents/Uni/Master/Erstes_Semester/Python/Pruefungsleistung","no","mono","no","18","no","black","no","Ok","NA","no","Female","768","psycho","/Users/johannaschuller/Documents/Uni/Master/Erstes_Semester/Python/Pruefungsleistung/Data/subject-0.csv","psycho","Interactive Ising","3.0.7","0","m","NA","NA","NA","NA","space","NA","328.593015671","NA","NA","NA","NA","10246.3171482","NA","NA","NA","2","legacy","Mann","1024","2","48000","-16","experiment","0","even","607961.009979","607890.03396","574162.672997","574162.425995","NA","NA","560425.660133","574161.808968","NA","607143.630028","NA","NA","NA","NA","NA","NA","NA","608291.994095","NA","NA","NA","607960.809946","NA","560490.360975","NA","NA","NA","NA","607126.620054","NA","Tutorial: Gaze cuing","0","0","0","yes","1024"
"undefined","undefined","undefined","undefined","white","no","0","rechts","rechts","psycho","psycho","psycho","0","uniform","NA","NA","z","25","25","0","0","NA","NA","0","0","NA","25","NA","NA","NA","NA","NA","NA","NA","25","NA","0","NA","25","NA","0","0","NA","0","NA","25","NA","Tue Feb 13 14:51:50 2018","The main experiment item","yes","","Python Experiment.osexp","/Users/johannaschuller/Documents/Uni/Master/Erstes_Semester/Python/Pruefungsleistung","no","mono","no","18","no","black","no","Ok","NA","no","Female","768","psycho","/Users/johannaschuller/Documents/Uni/Master/Erstes_Semester/Python/Pruefungsleistung/Data/subject-0.csv","psycho","Interactive Ising","3.0.7","0","z","NA","NA","NA","NA","space","NA","348.165988922","NA","NA","NA","NA","10246.3171482","NA","NA","NA","2","legacy","Frau","1024","2","48000","-16","experiment","0","even","609294.363022","609207.026958","574162.672997","574162.425995","NA","NA","560425.660133","574161.808968","NA","608460.584164","NA","NA","NA","NA","NA","NA","NA","609644.933939","NA","NA","NA","609294.162989","NA","560490.360975","NA","NA","NA","NA","608452.564955","NA","Tutorial: Gaze cuing","0","0","0","yes","1024"
"undefined","undefined","undefined","undefined","white","no","0","rechts","rechts","psycho","psycho","psycho","0","uniform","NA","NA","z","26","26","0","0","NA","NA","0","0","NA","26","NA","NA","NA","NA","NA","NA","NA","26","NA","0","NA","26","NA","0","0","NA","0","NA","26","NA","Tue Feb 13 14:51:50 2018","The main experiment item","yes","","Python Experiment.osexp","/Users/johannaschuller/Documents/Uni/Master/Erstes_Semester/Python/Pruefungsleistung","no","mono","no","18","no","black","no","Ok","NA","no","Female","768","psycho","/Users/johannaschuller/Documents/Uni/Master/Erstes_Semester/Python/Pruefungsleistung/Data/subject-0.csv","psycho","Interactive Ising","3.0.7","0","z","NA","NA","NA","NA","space","NA","292.144060135","NA","NA","NA","NA","10246.3171482","NA","NA","NA","2","legacy","Frau","1024","2","48000","-16","experiment","0","even","610627.413988","610557.590008","574162.672997","574162.425995","NA","NA","560425.660133","574161.808968","NA","609811.179161","NA","NA","NA","NA","NA","NA","NA","610922.099113","NA","NA","NA","610627.215147","NA","560490.360975","NA","NA","NA","NA","609803.287029","NA","Tutorial: Gaze cuing","0","0","0","yes","1024"
"undefined","undefined","undefined","undefined","white","no","0","links","links","psycho","psycho","psycho","0","uniform","NA","NA","m","27","27","0","0","NA","NA","0","0","NA","27","NA","NA","NA","NA","NA","NA","NA","27","NA","0","NA","27","NA","0","0","NA","0","NA","27","NA","Tue Feb 13 14:51:50 2018","The main experiment item","yes","","Python Experiment.osexp","/Users/johannaschuller/Documents/Uni/Master/Erstes_Semester/Python/Pruefungsleistung","no","mono","no","18","no","black","no","Ok","NA","no","Female","768","psycho","/Users/johannaschuller/Documents/Uni/Master/Erstes_Semester/Python/Pruefungsleistung/Data/subject-0.csv","psycho","Interactive Ising","3.0.7","0","m","NA","NA","NA","NA","space","NA","393.041849136","NA","NA","NA","NA","10246.3171482","NA","NA","NA","2","legacy","Mann","1024","2","48000","-16","experiment","0","even","611894.520998","611824.407101","574162.672997","574162.425995","NA","NA","560425.660133","574161.808968","NA","611077.954054","NA","NA","NA","NA","NA","NA","NA","612289.934158","NA","NA","NA","611894.320011","NA","560490.360975","NA","NA","NA","NA","611064.476013","NA","Tutorial: Gaze cuing","0","0","0","yes","1024"
"undefined","undefined","undefined","undefined","white","no","1","rechts","links","psycho","psycho","psycho","0","uniform","NA","NA","z","28","28","0","0","NA","NA","0","0","NA","28","NA","NA","NA","NA","NA","NA","NA","28","NA","0","NA","28","NA","0","0","NA","0","NA","28","NA","Tue Feb 13 14:51:50 2018","The main experiment item","yes","","Python Experiment.osexp","/Users/johannaschuller/Documents/Uni/Master/Erstes_Semester/Python/Pruefungsleistung","no","mono","no","18","no","black","no","Ok","NA","no","Female","768","psycho","/Users/johannaschuller/Documents/Uni/Master/Erstes_Semester/Python/Pruefungsleistung/Data/subject-0.csv","psycho","Interactive Ising","3.0.7","0","z","NA","NA","NA","NA","space","NA","330.729961395","NA","NA","NA","NA","10246.3171482","NA","NA","NA","2","legacy","Frau","1024","2","48000","-16","experiment","0","even","613277.745008","613207.666159","574162.672997","574162.425995","NA","NA","560425.660133","574161.808968","NA","612461.261034","NA","NA","NA","NA","NA","NA","NA","613610.903025","NA","NA","NA","613277.546167","NA","560490.360975","NA","NA","NA","NA","612439.934015","NA","Tutorial: Gaze cuing","0","0","0","yes","1024"
"undefined","undefined","undefined","undefined","white","no","1","rechts","links","psycho","psycho","psycho","0","uniform","NA","NA","z","29","29","0","0","NA","NA","0","0","NA","29","NA","NA","NA","NA","NA","NA","NA","29","NA","0","NA","29","NA","0","0","NA","0","NA","29","NA","Tue Feb 13 14:51:50 2018","The main experiment item","yes","","Python Experiment.osexp","/Users/johannaschuller/Documents/Uni/Master/Erstes_Semester/Python/Pruefungsleistung","no","mono","no","18","no","black","no","Ok","NA","no","Female","768","psycho","/Users/johannaschuller/Documents/Uni/Master/Erstes_Semester/Python/Pruefungsleistung/Data/subject-0.csv","psycho","Interactive Ising","3.0.7","0","z","NA","NA","NA","NA","space","NA","328.214168549","NA","NA","NA","NA","10246.3171482","NA","NA","NA","2","legacy","Frau","1024","2","48000","-16","experiment","0","even","614595.271111","614523.724079","574162.672997","574162.425995","NA","NA","560425.660133","574161.808968","NA","613777.378082","NA","NA","NA","NA","NA","NA","NA","614925.853014","NA","NA","NA","614595.070124","NA","560490.360975","NA","NA","NA","NA","613769.720078","NA","Tutorial: Gaze cuing","0","0","0","yes","1024"
"undefined","undefined","undefined","undefined","white","no","1","rechts","links","psycho","psycho","psycho","0","uniform","NA","NA","m","30","30","0","0","NA","NA","0","0","NA","30","NA","NA","NA","NA","NA","NA","NA","30","NA","0","NA","30","NA","0","0","NA","0","NA","30","NA","Tue Feb 13 14:51:50 2018","The main experiment item","yes","","Python Experiment.osexp","/Users/johannaschuller/Documents/Uni/Master/Erstes_Semester/Python/Pruefungsleistung","no","mono","no","18","no","black","no","Ok","NA","no","Female","768","psycho","/Users/johannaschuller/Documents/Uni/Master/Erstes_Semester/Python/Pruefungsleistung/Data/subject-0.csv","psycho","Interactive Ising","3.0.7","0","m","NA","NA","NA","NA","space","NA","784.254789352","NA","NA","NA","NA","10246.3171482","NA","NA","NA","2","legacy","Mann","1024","2","48000","-16","experiment","0","even","615928.148031","615841.253996","574162.672997","574162.425995","NA","NA","560425.660133","574161.808968","NA","615094.943047","NA","NA","NA","NA","NA","NA","NA","616714.843035","NA","NA","NA","615927.947998","NA","560490.360975","NA","NA","NA","NA","615075.387001","NA","Tutorial: Gaze cuing","0","0","0","yes","1024"
"undefined","undefined","undefined","undefined","white","no","1","rechts","links","psycho","psycho","psycho","0","uniform","NA","NA","m","31","31","0","0","NA","NA","0","0","NA","31","NA","NA","NA","NA","NA","NA","NA","31","NA","0","NA","31","NA","0","0","NA","0","NA","31","NA","Tue Feb 13 14:51:50 2018","The main experiment item","yes","","Python Experiment.osexp","/Users/johannaschuller/Documents/Uni/Master/Erstes_Semester/Python/Pruefungsleistung","no","mono","no","18","no","black","no","Ok","NA","no","Female","768","psycho","/Users/johannaschuller/Documents/Uni/Master/Erstes_Semester/Python/Pruefungsleistung/Data/subject-0.csv","psycho","Interactive Ising","3.0.7","0","m","NA","NA","NA","NA","space","NA","466.084957123","NA","NA","NA","NA","10246.3171482","NA","NA","NA","2","legacy","Mann","1024","2","48000","-16","experiment","0","even","617695.336103","617624.727964","574162.672997","574162.425995","NA","NA","560425.660133","574161.808968","NA","616878.335953","NA","NA","NA","NA","NA","NA","NA","618163.772106","NA","NA","NA","617695.135117","NA","560490.360975","NA","NA","NA","NA","616869.725943","NA","Tutorial: Gaze cuing","0","0","0","yes","1024"
"undefined","undefined","undefined","undefined","white","no","0","links","links","psycho","psycho","psycho","0","uniform","NA","NA","z","32","32","1","1","NA","NA","0","0","NA","32","NA","NA","NA","NA","NA","NA","NA","32","NA","0","NA","32","NA","0","0","NA","1","NA","32","NA","Tue Feb 13 14:51:50 2018","The main experiment item","yes","","Python Experiment.osexp","/Users/johannaschuller/Documents/Uni/Master/Erstes_Semester/Python/Pruefungsleistung","no","mono","no","18","no","black","no","Ok","NA","no","Female","768","psycho","/Users/johannaschuller/Documents/Uni/Master/Erstes_Semester/Python/Pruefungsleistung/Data/subject-0.csv","psycho","Interactive Ising","3.0.7","0","z","NA","NA","NA","NA","space","NA","436.089038849","NA","NA","NA","NA","10246.3171482","NA","NA","NA","2","legacy","Frau","1024","2","48000","-16","experiment","0","even","619145.168066","619074.159145","618173.975945","618173.524141","NA","NA","560425.660133","574161.808968","NA","618327.788115","NA","NA","NA","NA","NA","NA","NA","619583.773136","NA","NA","NA","619144.968033","NA","560490.360975","NA","NA","NA","NA","618318.938971","NA","Tutorial: Gaze cuing","0","0","0","yes","1024"
"undefined","undefined","undefined","undefined","white","no","0","links","links","psycho","psycho","psycho","0","uniform","NA","NA","m","33","33","1","1","NA","NA","0","0","NA","33","NA","NA","NA","NA","NA","NA","NA","33","NA","0","NA","33","NA","0","0","NA","1","NA","33","NA","Tue Feb 13 14:51:50 2018","The main experiment item","yes","","Python Experiment.osexp","/Users/johannaschuller/Documents/Uni/Master/Erstes_Semester/Python/Pruefungsleistung","no","mono","no","18","no","black","no","Ok","NA","no","Female","768","psycho","/Users/johannaschuller/Documents/Uni/Master/Erstes_Semester/Python/Pruefungsleistung/Data/subject-0.csv","psycho","Interactive Ising","3.0.7","0","z","NA","NA","NA","NA","space","NA","397.125959396","NA","NA","NA","NA","10246.3171482","NA","NA","NA","2","legacy","Mann","1024","2","48000","-16","experiment","0","even","620579.138994","620507.957935","618173.975945","618173.524141","NA","NA","560425.660133","574161.808968","NA","619761.619091","NA","NA","NA","NA","NA","NA","NA","620978.605032","NA","NA","NA","620578.938007","NA","560490.360975","NA","NA","NA","NA","619740.185022","NA","Tutorial: Gaze cuing","0","0","0","yes","1024"
"undefined","undefined","undefined","undefined","white","no","1","rechts","links","psycho","psycho","psycho","0","uniform","NA","NA","m","34","34","1","1","NA","NA","0","0","NA","34","NA","NA","NA","NA","NA","NA","NA","34","NA","0","NA","34","NA","0","0","NA","1","NA","34","NA","Tue Feb 13 14:51:50 2018","The main experiment item","yes","","Python Experiment.osexp","/Users/johannaschuller/Documents/Uni/Master/Erstes_Semester/Python/Pruefungsleistung","no","mono","no","18","no","black","no","Ok","NA","no","Female","768","psycho","/Users/johannaschuller/Documents/Uni/Master/Erstes_Semester/Python/Pruefungsleistung/Data/subject-0.csv","psycho","Interactive Ising","3.0.7","0","m","NA","NA","NA","NA","space","NA","515.17701149","NA","NA","NA","NA","10246.3171482","NA","NA","NA","2","legacy","Mann","1024","2","48000","-16","experiment","0","even","621961.936951","621890.676022","618173.975945","618173.524141","NA","NA","560425.660133","574161.808968","NA","621145.308971","NA","NA","NA","NA","NA","NA","NA","622479.57015","NA","NA","NA","621961.735964","NA","560490.360975","NA","NA","NA","NA","621126.871109","NA","Tutorial: Gaze cuing","0","0","0","yes","1024"
"undefined","undefined","undefined","undefined","white","no","0","links","links","psycho","psycho","psycho","0","uniform","NA","NA","m","35","35","1","1","NA","NA","0","0","NA","35","NA","NA","NA","NA","NA","NA","NA","35","NA","0","NA","35","NA","0","0","NA","1","NA","35","NA","Tue Feb 13 14:51:50 2018","The main experiment item","yes","","Python Experiment.osexp","/Users/johannaschuller/Documents/Uni/Master/Erstes_Semester/Python/Pruefungsleistung","no","mono","no","18","no","black","no","Ok","NA","no","Female","768","psycho","/Users/johannaschuller/Documents/Uni/Master/Erstes_Semester/Python/Pruefungsleistung/Data/subject-0.csv","psycho","Interactive Ising","3.0.7","0","m","NA","NA","NA","NA","space","NA","317.07406044","NA","NA","NA","NA","10246.3171482","NA","NA","NA","2","legacy","Mann","1024","2","48000","-16","experiment","0","even","623462.023973","623391.884089","618173.975945","618173.524141","NA","NA","560425.660133","574161.808968","NA","622645.534039","NA","NA","NA","NA","NA","NA","NA","623781.588078","NA","NA","NA","623461.822033","NA","560490.360975","NA","NA","NA","NA","622633.53014","NA","Tutorial: Gaze cuing","0","0","0","yes","1024"
"undefined","undefined","undefined","undefined","white","no","0","links","links","psycho","psycho","psycho","0","uniform","NA","NA","z","36","36","1","1","NA","NA","0","0","NA","36","NA","NA","NA","NA","NA","NA","NA","36","NA","0","NA","36","NA","0","0","NA","1","NA","36","NA","Tue Feb 13 14:51:50 2018","The main experiment item","yes","","Python Experiment.osexp","/Users/johannaschuller/Documents/Uni/Master/Erstes_Semester/Python/Pruefungsleistung","no","mono","no","18","no","black","no","Ok","NA","no","Female","768","psycho","/Users/johannaschuller/Documents/Uni/Master/Erstes_Semester/Python/Pruefungsleistung/Data/subject-0.csv","psycho","Interactive Ising","3.0.7","0","z","NA","NA","NA","NA","space","NA","307.247877121","NA","NA","NA","NA","10246.3171482","NA","NA","NA","2","legacy","Frau","1024","2","48000","-16","experiment","0","even","624762.865067","624692.432165","618173.975945","618173.524141","NA","NA","560425.660133","574161.808968","NA","623946.051121","NA","NA","NA","NA","NA","NA","NA","625072.60704","NA","NA","NA","624762.665033","NA","560490.360975","NA","NA","NA","NA","623935.169935","NA","Tutorial: Gaze cuing","0","0","0","yes","1024"
"undefined","undefined","undefined","undefined","white","no","0","rechts","rechts","psycho","psycho","psycho","0","uniform","NA","NA","z","37","37","1","1","NA","NA","0","0","NA","37","NA","NA","NA","NA","NA","NA","NA","37","NA","0","NA","37","NA","0","0","NA","1","NA","37","NA","Tue Feb 13 14:51:50 2018","The main experiment item","yes","","Python Experiment.osexp","/Users/johannaschuller/Documents/Uni/Master/Erstes_Semester/Python/Pruefungsleistung","no","mono","no","18","no","black","no","Ok","NA","no","Female","768","psycho","/Users/johannaschuller/Documents/Uni/Master/Erstes_Semester/Python/Pruefungsleistung/Data/subject-0.csv","psycho","Interactive Ising","3.0.7","0","z","NA","NA","NA","NA","space","NA","364.722013474","NA","NA","NA","NA","10246.3171482","NA","NA","NA","2","legacy","Frau","1024","2","48000","-16","experiment","0","even","626062.481165","625974.964142","618173.975945","618173.524141","NA","NA","560425.660133","574161.808968","NA","625228.523016","NA","NA","NA","NA","NA","NA","NA","626429.564953","NA","NA","NA","626062.278986","NA","560490.360975","NA","NA","NA","NA","625219.548941","NA","Tutorial: Gaze cuing","0","0","0","yes","1024"
"undefined","undefined","undefined","undefined","white","no","0","rechts","rechts","psycho","psycho","psycho","0","uniform","NA","NA","z","38","38","1","1","NA","NA","0","0","NA","38","NA","NA","NA","NA","NA","NA","NA","38","NA","0","NA","38","NA","0","0","NA","1","NA","38","NA","Tue Feb 13 14:51:50 2018","The main experiment item","yes","","Python Experiment.osexp","/Users/johannaschuller/Documents/Uni/Master/Erstes_Semester/Python/Pruefungsleistung","no","mono","no","18","no","black","no","Ok","NA","no","Female","768","psycho","/Users/johannaschuller/Documents/Uni/Master/Erstes_Semester/Python/Pruefungsleistung/Data/subject-0.csv","psycho","Interactive Ising","3.0.7","0","z","NA","NA","NA","NA","space","NA","367.947101593","NA","NA","NA","NA","10246.3171482","NA","NA","NA","2","legacy","Frau","1024","2","48000","-16","experiment","0","even","627413.149118","627342.148066","618173.975945","618173.524141","NA","NA","560425.660133","574161.808968","NA","626595.751047","NA","NA","NA","NA","NA","NA","NA","627783.35309","NA","NA","NA","627412.949085","NA","560490.360975","NA","NA","NA","NA","626576.274157","NA","Tutorial: Gaze cuing","0","0","0","yes","1024"
"undefined","undefined","undefined","undefined","white","no","0","rechts","rechts","psycho","psycho","psycho","0","uniform","NA","NA","z","39","39","1","1","NA","NA","0","0","NA","39","NA","NA","NA","NA","NA","NA","NA","39","NA","0","NA","39","NA","0","0","NA","1","NA","39","NA","Tue Feb 13 14:51:50 2018","The main experiment item","yes","","Python Experiment.osexp","/Users/johannaschuller/Documents/Uni/Master/Erstes_Semester/Python/Pruefungsleistung","no","mono","no","18","no","black","no","Ok","NA","no","Female","768","psycho","/Users/johannaschuller/Documents/Uni/Master/Erstes_Semester/Python/Pruefungsleistung/Data/subject-0.csv","psycho","Interactive Ising","3.0.7","0","z","NA","NA","NA","NA","space","NA","409.482955933","NA","NA","NA","NA","10246.3171482","NA","NA","NA","2","legacy","Frau","1024","2","48000","-16","experiment","0","even","628762.612104","628692.881107","618173.975945","618173.524141","NA","NA","560425.660133","574161.808968","NA","627946.472168","NA","NA","NA","NA","NA","NA","NA","629174.386978","NA","NA","NA","628762.415171","NA","560490.360975","NA","NA","NA","NA","627933.851004","NA","Tutorial: Gaze cuing","0","0","0","yes","1024"
"undefined","undefined","undefined","undefined","white","no","0","links","rechts","psycho","psycho","psycho","0","uniform","NA","NA","z","40","40","1","1","NA","NA","0","0","NA","40","NA","NA","NA","NA","NA","NA","NA","40","NA","0","NA","40","NA","0","0","NA","1","NA","40","NA","Tue Feb 13 14:51:50 2018","The main experiment item","yes","","Python Experiment.osexp","/Users/johannaschuller/Documents/Uni/Master/Erstes_Semester/Python/Pruefungsleistung","no","mono","no","18","no","black","no","Ok","NA","no","Female","768","psycho","/Users/johannaschuller/Documents/Uni/Master/Erstes_Semester/Python/Pruefungsleistung/Data/subject-0.csv","psycho","Interactive Ising","3.0.7","0","z","NA","NA","NA","NA","space","NA","339.04004097","NA","NA","NA","NA","10246.3171482","NA","NA","NA","2","legacy","Frau","1024","2","48000","-16","experiment","0","even","630163.067102","630092.076063","618173.975945","618173.524141","NA","NA","560425.660133","574161.808968","NA","629345.687151","NA","NA","NA","NA","NA","NA","NA","630504.46105","NA","NA","NA","630162.871122","NA","560490.360975","NA","NA","NA","NA","629325.423956","NA","Tutorial: Gaze cuing","0","0","0","yes","1024"
"undefined","undefined","undefined","undefined","white","no","0","links","links","psycho","psycho","psycho","0","uniform","NA","NA","z","41","41","1","1","NA","NA","0","0","NA","41","NA","NA","NA","NA","NA","NA","NA","41","NA","0","NA","41","NA","0","0","NA","1","NA","41","NA","Tue Feb 13 14:51:50 2018","The main experiment item","yes","","Python Experiment.osexp","/Users/johannaschuller/Documents/Uni/Master/Erstes_Semester/Python/Pruefungsleistung","no","mono","no","18","no","black","no","Ok","NA","no","Female","768","psycho","/Users/johannaschuller/Documents/Uni/Master/Erstes_Semester/Python/Pruefungsleistung/Data/subject-0.csv","psycho","Interactive Ising","3.0.7","0","z","NA","NA","NA","NA","space","NA","306.777954102","NA","NA","NA","NA","10246.3171482","NA","NA","NA","2","legacy","Frau","1024","2","48000","-16","experiment","0","even","631496.0711","631425.642967","618173.975945","618173.524141","NA","NA","560425.660133","574161.808968","NA","630679.985046","NA","NA","NA","NA","NA","NA","NA","631805.444956","NA","NA","NA","631495.780945","NA","560490.360975","NA","NA","NA","NA","630663.99312","NA","Tutorial: Gaze cuing","0","0","0","yes","1024"
"undefined","undefined","undefined","undefined","white","no","1","rechts","links","psycho","psycho","psycho","0","uniform","NA","NA","m","42","42","1","1","NA","NA","0","0","NA","42","NA","NA","NA","NA","NA","NA","NA","42","NA","0","NA","42","NA","0","0","NA","1","NA","42","NA","Tue Feb 13 14:51:50 2018","The main experiment item","yes","","Python Experiment.osexp","/Users/johannaschuller/Documents/Uni/Master/Erstes_Semester/Python/Pruefungsleistung","no","mono","no","18","no","black","no","Ok","NA","no","Female","768","psycho","/Users/johannaschuller/Documents/Uni/Master/Erstes_Semester/Python/Pruefungsleistung/Data/subject-0.csv","psycho","Interactive Ising","3.0.7","0","m","NA","NA","NA","NA","space","NA","365.73600769","NA","NA","NA","NA","10246.3171482","NA","NA","NA","2","legacy","Mann","1024","2","48000","-16","experiment","0","even","632813.265085","632725.912094","618173.975945","618173.524141","NA","NA","560425.660133","574161.808968","NA","631979.534149","NA","NA","NA","NA","NA","NA","NA","633182.358027","NA","NA","NA","632813.039064","NA","560490.360975","NA","NA","NA","NA","631959.048986","NA","Tutorial: Gaze cuing","0","0","0","yes","1024"
"undefined","undefined","undefined","undefined","white","no","1","rechts","links","psycho","psycho","psycho","0","uniform","NA","NA","m","43","43","1","1","NA","NA","0","0","NA","43","NA","NA","NA","NA","NA","NA","NA","43","NA","0","NA","43","NA","0","0","NA","1","NA","43","NA","Tue Feb 13 14:51:50 2018","The main experiment item","yes","","Python Experiment.osexp","/Users/johannaschuller/Documents/Uni/Master/Erstes_Semester/Python/Pruefungsleistung","no","mono","no","18","no","black","no","Ok","NA","no","Female","768","psycho","/Users/johannaschuller/Documents/Uni/Master/Erstes_Semester/Python/Pruefungsleistung/Data/subject-0.csv","psycho","Interactive Ising","3.0.7","0","m","NA","NA","NA","NA","space","NA","467.73982048","NA","NA","NA","NA","10246.3171482","NA","NA","NA","2","legacy","Mann","1024","2","48000","-16","experiment","0","even","634180.119991","634109.890938","618173.975945","618173.524141","NA","NA","560425.660133","574161.808968","NA","633363.52396","NA","NA","NA","NA","NA","NA","NA","634650.160074","NA","NA","NA","634179.92115","NA","560490.360975","NA","NA","NA","NA","633347.337961","NA","Tutorial: Gaze cuing","0","0","0","yes","1024"
"undefined","undefined","undefined","undefined","white","no","0","rechts","rechts","psycho","psycho","psycho","0","uniform","NA","NA","m","44","44","1","1","NA","NA","0","0","NA","44","NA","NA","NA","NA","NA","NA","NA","44","NA","0","NA","44","NA","0","0","NA","1","NA","44","NA","Tue Feb 13 14:51:50 2018","The main experiment item","yes","","Python Experiment.osexp","/Users/johannaschuller/Documents/Uni/Master/Erstes_Semester/Python/Pruefungsleistung","no","mono","no","18","no","black","no","Ok","NA","no","Female","768","psycho","/Users/johannaschuller/Documents/Uni/Master/Erstes_Semester/Python/Pruefungsleistung/Data/subject-0.csv","psycho","Interactive Ising","3.0.7","0","m","NA","NA","NA","NA","space","NA","396.671056747","NA","NA","NA","NA","10246.3171482","NA","NA","NA","2","legacy","Mann","1024","2","48000","-16","experiment","0","even","635646.319151","635575.984955","618173.975945","618173.524141","NA","NA","560425.660133","574161.808968","NA","634829.556942","NA","NA","NA","NA","NA","NA","NA","636045.323133","NA","NA","NA","635646.119118","NA","560490.360975","NA","NA","NA","NA","634808.727026","NA","Tutorial: Gaze cuing","0","0","0","yes","1024"
"undefined","undefined","undefined","undefined","white","no","1","rechts","links","psycho","psycho","psycho","0","uniform","NA","NA","z","45","45","1","1","NA","NA","0","0","NA","45","NA","NA","NA","NA","NA","NA","NA","45","NA","0","NA","45","NA","0","0","NA","1","NA","45","NA","Tue Feb 13 14:51:50 2018","The main experiment item","yes","","Python Experiment.osexp","/Users/johannaschuller/Documents/Uni/Master/Erstes_Semester/Python/Pruefungsleistung","no","mono","no","18","no","black","no","Ok","NA","no","Female","768","psycho","/Users/johannaschuller/Documents/Uni/Master/Erstes_Semester/Python/Pruefungsleistung/Data/subject-0.csv","psycho","Interactive Ising","3.0.7","0","z","NA","NA","NA","NA","space","NA","600.587129593","NA","NA","NA","NA","10246.3171482","NA","NA","NA","2","legacy","Frau","1024","2","48000","-16","experiment","0","even","637047.261953","636960.010052","618173.975945","618173.524141","NA","NA","560425.660133","574161.808968","NA","636213.601112","NA","NA","NA","NA","NA","NA","NA","637650.215149","NA","NA","NA","637047.060013","NA","560490.360975","NA","NA","NA","NA","636203.855991","NA","Tutorial: Gaze cuing","0","0","0","yes","1024"
"undefined","undefined","undefined","undefined","white","no","0","links","rechts","psycho","psycho","psycho","0","uniform","NA","NA","z","46","46","1","1","NA","NA","0","0","NA","46","NA","NA","NA","NA","NA","NA","NA","46","NA","0","NA","46","NA","0","0","NA","1","NA","46","NA","Tue Feb 13 14:51:50 2018","The main experiment item","yes","","Python Experiment.osexp","/Users/johannaschuller/Documents/Uni/Master/Erstes_Semester/Python/Pruefungsleistung","no","mono","no","18","no","black","no","Ok","NA","no","Female","768","psycho","/Users/johannaschuller/Documents/Uni/Master/Erstes_Semester/Python/Pruefungsleistung/Data/subject-0.csv","psycho","Interactive Ising","3.0.7","0","z","NA","NA","NA","NA","space","NA","383.989810944","NA","NA","NA","NA","10246.3171482","NA","NA","NA","2","legacy","Frau","1024","2","48000","-16","experiment","0","even","638646.712065","638560.492992","618173.975945","618173.524141","NA","NA","560425.660133","574161.808968","NA","637814.06498","NA","NA","NA","NA","NA","NA","NA","639033.065081","NA","NA","NA","638646.512985","NA","560490.360975","NA","NA","NA","NA","637803.885937","NA","Tutorial: Gaze cuing","0","0","0","yes","1024"
"undefined","undefined","undefined","undefined","white","no","0","links","links","psycho","psycho","psycho","0","uniform","NA","NA","m","47","47","1","1","NA","NA","0","0","NA","47","NA","NA","NA","NA","NA","NA","NA","47","NA","0","NA","47","NA","0","0","NA","1","NA","47","NA","Tue Feb 13 14:51:50 2018","The main experiment item","yes","","Python Experiment.osexp","/Users/johannaschuller/Documents/Uni/Master/Erstes_Semester/Python/Pruefungsleistung","no","mono","no","18","no","black","no","Ok","NA","no","Female","768","psycho","/Users/johannaschuller/Documents/Uni/Master/Erstes_Semester/Python/Pruefungsleistung/Data/subject-0.csv","psycho","Interactive Ising","3.0.7","0","m","NA","NA","NA","NA","space","NA","501.168012619","NA","NA","NA","NA","10246.3171482","NA","NA","NA","2","legacy","Mann","1024","2","48000","-16","experiment","0","even","640030.622005","639943.956137","618173.975945","618173.524141","NA","NA","560425.660133","574161.808968","NA","639197.517157","NA","NA","NA","NA","NA","NA","NA","640534.250975","NA","NA","NA","640030.420065","NA","560490.360975","NA","NA","NA","NA","639181.48303","NA","Tutorial: Gaze cuing","0","0","0","yes","1024"
"undefined","undefined","undefined","undefined","white","no","1","rechts","links","psycho","psycho","psycho","0","uniform","NA","NA","z","48","48","1","1","NA","NA","0","0","NA","48","NA","NA","NA","NA","NA","NA","NA","48","NA","0","NA","48","NA","0","0","NA","1","NA","48","NA","Tue Feb 13 14:51:50 2018","The main experiment item","yes","","Python Experiment.osexp","/Users/johannaschuller/Documents/Uni/Master/Erstes_Semester/Python/Pruefungsleistung","no","mono","no","18","no","black","no","Ok","NA","no","Female","768","psycho","/Users/johannaschuller/Documents/Uni/Master/Erstes_Semester/Python/Pruefungsleistung/Data/subject-0.csv","psycho","Interactive Ising","3.0.7","0","z","NA","NA","NA","NA","space","NA","338.171005249","NA","NA","NA","NA","10246.3171482","NA","NA","NA","2","legacy","Frau","1024","2","48000","-16","experiment","0","even","641513.471127","641442.554951","618173.975945","618173.524141","NA","NA","560425.660133","574161.808968","NA","640697.092056","NA","NA","NA","NA","NA","NA","NA","641854.012966","NA","NA","NA","641513.275146","NA","560490.360975","NA","NA","NA","NA","640682.407141","NA","Tutorial: Gaze cuing","0","0","0","yes","1024"
"undefined","undefined","undefined","undefined","white","no","0","links","rechts","psycho","psycho","psycho","0","uniform","NA","NA","m","49","49","1","1","NA","NA","0","0","NA","49","NA","NA","NA","NA","NA","NA","NA","49","NA","0","NA","49","NA","0","0","NA","1","NA","49","NA","Tue Feb 13 14:51:50 2018","The main experiment item","yes","","Python Experiment.osexp","/Users/johannaschuller/Documents/Uni/Master/Erstes_Semester/Python/Pruefungsleistung","no","mono","no","18","no","black","no","Ok","NA","no","Female","768","psycho","/Users/johannaschuller/Documents/Uni/Master/Erstes_Semester/Python/Pruefungsleistung/Data/subject-0.csv","psycho","Interactive Ising","3.0.7","0","m","NA","NA","NA","NA","space","NA","445.417165756","NA","NA","NA","NA","10246.3171482","NA","NA","NA","2","legacy","Mann","1024","2","48000","-16","experiment","0","even","642831.285","642760.230064","618173.975945","618173.524141","NA","NA","560425.660133","574161.808968","NA","642014.491081","NA","NA","NA","NA","NA","NA","NA","643279.036045","NA","NA","NA","642831.084967","NA","560490.360975","NA","NA","NA","NA","642002.187014","NA","Tutorial: Gaze cuing","0","0","0","yes","1024"
"undefined","undefined","undefined","undefined","white","no","0","links","links","psycho","psycho","psycho","0","uniform","NA","NA","z","50","50","1","1","NA","NA","0","0","NA","50","NA","NA","NA","NA","NA","NA","NA","50","NA","0","NA","50","NA","0","0","NA","1","NA","50","NA","Tue Feb 13 14:51:50 2018","The main experiment item","yes","","Python Experiment.osexp","/Users/johannaschuller/Documents/Uni/Master/Erstes_Semester/Python/Pruefungsleistung","no","mono","no","18","no","black","no","Ok","NA","no","Female","768","psycho","/Users/johannaschuller/Documents/Uni/Master/Erstes_Semester/Python/Pruefungsleistung/Data/subject-0.csv","psycho","Interactive Ising","3.0.7","0","z","NA","NA","NA","NA","space","NA","519.155979156","NA","NA","NA","NA","10246.3171482","NA","NA","NA","2","legacy","Frau","1024","2","48000","-16","experiment","0","even","644264.497995","644193.949938","618173.975945","618173.524141","NA","NA","560425.660133","574161.808968","NA","643447.886944","NA","NA","NA","NA","NA","NA","NA","644786.100149","NA","NA","NA","644264.299154","NA","560490.360975","NA","NA","NA","NA","643434.03101","NA","Tutorial: Gaze cuing","0","0","0","yes","1024"
"undefined","undefined","undefined","undefined","white","no","1","rechts","links","psycho","psycho","psycho","0","uniform","NA","NA","z","51","51","1","1","NA","NA","0","0","NA","51","NA","NA","NA","NA","NA","NA","NA","51","NA","0","NA","51","NA","0","0","NA","1","NA","51","NA","Tue Feb 13 14:51:50 2018","The main experiment item","yes","","Python Experiment.osexp","/Users/johannaschuller/Documents/Uni/Master/Erstes_Semester/Python/Pruefungsleistung","no","mono","no","18","no","black","no","Ok","NA","no","Female","768","psycho","/Users/johannaschuller/Documents/Uni/Master/Erstes_Semester/Python/Pruefungsleistung/Data/subject-0.csv","psycho","Interactive Ising","3.0.7","0","z","NA","NA","NA","NA","space","NA","483.876943588","NA","NA","NA","NA","10246.3171482","NA","NA","NA","2","legacy","Frau","1024","2","48000","-16","experiment","0","even","645764.66012","645693.885088","618173.975945","618173.524141","NA","NA","560425.660133","574161.808968","NA","644947.531939","NA","NA","NA","NA","NA","NA","NA","646250.854969","NA","NA","NA","645764.460087","NA","560490.360975","NA","NA","NA","NA","644933.738947","NA","Tutorial: Gaze cuing","0","0","0","yes","1024"
"undefined","undefined","undefined","undefined","white","no","1","rechts","links","psycho","psycho","psycho","0","uniform","NA","NA","m","52","52","1","1","NA","NA","0","0","NA","52","NA","NA","NA","NA","NA","NA","NA","52","NA","0","NA","52","NA","0","0","NA","1","NA","52","NA","Tue Feb 13 14:51:50 2018","The main experiment item","yes","","Python Experiment.osexp","/Users/johannaschuller/Documents/Uni/Master/Erstes_Semester/Python/Pruefungsleistung","no","mono","no","18","no","black","no","Ok","NA","no","Female","768","psycho","/Users/johannaschuller/Documents/Uni/Master/Erstes_Semester/Python/Pruefungsleistung/Data/subject-0.csv","psycho","Interactive Ising","3.0.7","0","m","NA","NA","NA","NA","space","NA","493.299007416","NA","NA","NA","NA","10246.3171482","NA","NA","NA","2","legacy","Mann","1024","2","48000","-16","experiment","0","even","647231.31299","647160.70199","618173.975945","618173.524141","NA","NA","560425.660133","574161.808968","NA","646414.576054","NA","NA","NA","NA","NA","NA","NA","647726.945162","NA","NA","NA","647231.112003","NA","560490.360975","NA","NA","NA","NA","646407.742977","NA","Tutorial: Gaze cuing","0","0","0","yes","1024"
"undefined","undefined","undefined","undefined","white","no","0","rechts","rechts","psycho","psycho","psycho","0","uniform","NA","NA","z","53","53","1","1","NA","NA","0","0","NA","53","NA","NA","NA","NA","NA","NA","NA","53","NA","0","NA","53","NA","0","0","NA","1","NA","53","NA","Tue Feb 13 14:51:50 2018","The main experiment item","yes","","Python Experiment.osexp","/Users/johannaschuller/Documents/Uni/Master/Erstes_Semester/Python/Pruefungsleistung","no","mono","no","18","no","black","no","Ok","NA","no","Female","768","psycho","/Users/johannaschuller/Documents/Uni/Master/Erstes_Semester/Python/Pruefungsleistung/Data/subject-0.csv","psycho","Interactive Ising","3.0.7","0","z","NA","NA","NA","NA","space","NA","682.70611763","NA","NA","NA","NA","10246.3171482","NA","NA","NA","2","legacy","Frau","1024","2","48000","-16","experiment","0","even","648697.916031","648628.162146","618173.975945","618173.524141","NA","NA","560425.660133","574161.808968","NA","647881.75106","NA","NA","NA","NA","NA","NA","NA","649382.913113","NA","NA","NA","648697.718143","NA","560490.360975","NA","NA","NA","NA","647874.170065","NA","Tutorial: Gaze cuing","0","0","0","yes","1024"
"undefined","undefined","undefined","undefined","white","no","0","rechts","rechts","psycho","psycho","psycho","0","uniform","NA","NA","m","54","54","1","1","NA","NA","0","0","NA","54","NA","NA","NA","NA","NA","NA","NA","54","NA","0","NA","54","NA","0","0","NA","1","NA","54","NA","Tue Feb 13 14:51:50 2018","The main experiment item","yes","","Python Experiment.osexp","/Users/johannaschuller/Documents/Uni/Master/Erstes_Semester/Python/Pruefungsleistung","no","mono","no","18","no","black","no","Ok","NA","no","Female","768","psycho","/Users/johannaschuller/Documents/Uni/Master/Erstes_Semester/Python/Pruefungsleistung/Data/subject-0.csv","psycho","Interactive Ising","3.0.7","0","m","NA","NA","NA","NA","space","NA","407.160043716","NA","NA","NA","NA","10246.3171482","NA","NA","NA","2","legacy","Mann","1024","2","48000","-16","experiment","0","even","650381.402969","650310.083151","618173.975945","618173.524141","NA","NA","560425.660133","574161.808968","NA","649564.562082","NA","NA","NA","NA","NA","NA","NA","650790.951014","NA","NA","NA","650381.202936","NA","560490.360975","NA","NA","NA","NA","649552.850008","NA","Tutorial: Gaze cuing","0","0","0","yes","1024"
"undefined","undefined","undefined","undefined","white","no","0","links","rechts","psycho","psycho","psycho","0","uniform","NA","NA","z","55","55","1","1","NA","NA","0","0","NA","55","NA","NA","NA","NA","NA","NA","NA","55","NA","0","NA","55","NA","0","0","NA","1","NA","55","NA","Tue Feb 13 14:51:50 2018","The main experiment item","yes","","Python Experiment.osexp","/Users/johannaschuller/Documents/Uni/Master/Erstes_Semester/Python/Pruefungsleistung","no","mono","no","18","no","black","no","Ok","NA","no","Female","768","psycho","/Users/johannaschuller/Documents/Uni/Master/Erstes_Semester/Python/Pruefungsleistung/Data/subject-0.csv","psycho","Interactive Ising","3.0.7","0","z","NA","NA","NA","NA","space","NA","371.549129486","NA","NA","NA","NA","10246.3171482","NA","NA","NA","2","legacy","Frau","1024","2","48000","-16","experiment","0","even","651781.793118","651710.649967","618173.975945","618173.524141","NA","NA","560425.660133","574161.808968","NA","650964.828968","NA","NA","NA","NA","NA","NA","NA","652159.749031","NA","NA","NA","651781.594038","NA","560490.360975","NA","NA","NA","NA","650947.549105","NA","Tutorial: Gaze cuing","0","0","0","yes","1024"
"undefined","undefined","undefined","undefined","white","no","0","links","rechts","psycho","psycho","psycho","0","uniform","NA","NA","m","56","56","1","1","NA","NA","0","0","NA","56","NA","NA","NA","NA","NA","NA","NA","56","NA","0","NA","56","NA","0","0","NA","1","NA","56","NA","Tue Feb 13 14:51:50 2018","The main experiment item","yes","","Python Experiment.osexp","/Users/johannaschuller/Documents/Uni/Master/Erstes_Semester/Python/Pruefungsleistung","no","mono","no","18","no","black","no","Ok","NA","no","Female","768","psycho","/Users/johannaschuller/Documents/Uni/Master/Erstes_Semester/Python/Pruefungsleistung/Data/subject-0.csv","psycho","Interactive Ising","3.0.7","0","m","NA","NA","NA","NA","space","NA","590.5148983","NA","NA","NA","NA","10246.3171482","NA","NA","NA","2","legacy","Mann","1024","2","48000","-16","experiment","0","even","653148.878098","653077.574968","618173.975945","618173.524141","NA","NA","560425.660133","574161.808968","NA","652331.180096","NA","NA","NA","NA","NA","NA","NA","653741.731167","NA","NA","NA","653148.679018","NA","560490.360975","NA","NA","NA","NA","652325.509071","NA","Tutorial: Gaze cuing","0","0","0","yes","1024"
"undefined","undefined","undefined","undefined","white","no","0","links","rechts","psycho","psycho","psycho","0","uniform","NA","NA","m","57","57","1","1","NA","NA","0","0","NA","57","NA","NA","NA","NA","NA","NA","NA","57","NA","0","NA","57","NA","0","0","NA","1","NA","57","NA","Tue Feb 13 14:51:50 2018","The main experiment item","yes","","Python Experiment.osexp","/Users/johannaschuller/Documents/Uni/Master/Erstes_Semester/Python/Pruefungsleistung","no","mono","no","18","no","black","no","Ok","NA","no","Female","768","psycho","/Users/johannaschuller/Documents/Uni/Master/Erstes_Semester/Python/Pruefungsleistung/Data/subject-0.csv","psycho","Interactive Ising","3.0.7","0","m","NA","NA","NA","NA","space","NA","263.774871826","NA","NA","NA","NA","10246.3171482","NA","NA","NA","2","legacy","Mann","1024","2","48000","-16","experiment","0","even","654715.655088","654643.470049","618173.975945","618173.524141","NA","NA","560425.660133","574161.808968","NA","653898.214102","NA","NA","NA","NA","NA","NA","NA","654981.73213","NA","NA","NA","654715.454102","NA","560490.360975","NA","NA","NA","NA","653892.72809","NA","Tutorial: Gaze cuing","0","0","0","yes","1024"
"undefined","undefined","undefined","undefined","white","no","0","rechts","rechts","psycho","psycho","psycho","0","uniform","NA","NA","m","58","58","1","1","NA","NA","0","0","NA","58","NA","NA","NA","NA","NA","NA","NA","58","NA","0","NA","58","NA","0","0","NA","1","NA","58","NA","Tue Feb 13 14:51:50 2018","The main experiment item","yes","","Python Experiment.osexp","/Users/johannaschuller/Documents/Uni/Master/Erstes_Semester/Python/Pruefungsleistung","no","mono","no","18","no","black","no","Ok","NA","no","Female","768","psycho","/Users/johannaschuller/Documents/Uni/Master/Erstes_Semester/Python/Pruefungsleistung/Data/subject-0.csv","psycho","Interactive Ising","3.0.7","0","m","NA","NA","NA","NA","space","NA","308.574199677","NA","NA","NA","NA","10246.3171482","NA","NA","NA","2","legacy","Mann","1024","2","48000","-16","experiment","0","even","655965.713024","655894.637108","618173.975945","618173.524141","NA","NA","560425.660133","574161.808968","NA","655148.224115","NA","NA","NA","NA","NA","NA","NA","656276.553154","NA","NA","NA","655965.512991","NA","560490.360975","NA","NA","NA","NA","655129.188061","NA","Tutorial: Gaze cuing","0","0","0","yes","1024"
"undefined","undefined","undefined","undefined","white","no","0","links","links","psycho","psycho","psycho","0","uniform","NA","NA","m","59","59","1","1","NA","NA","0","0","NA","59","NA","NA","NA","NA","NA","NA","NA","59","NA","0","NA","59","NA","0","0","NA","1","NA","59","NA","Tue Feb 13 14:51:50 2018","The main experiment item","yes","","Python Experiment.osexp","/Users/johannaschuller/Documents/Uni/Master/Erstes_Semester/Python/Pruefungsleistung","no","mono","no","18","no","black","no","Ok","NA","no","Female","768","psycho","/Users/johannaschuller/Documents/Uni/Master/Erstes_Semester/Python/Pruefungsleistung/Data/subject-0.csv","psycho","Interactive Ising","3.0.7","0","m","NA","NA","NA","NA","space","NA","313.302993774","NA","NA","NA","NA","10246.3171482","NA","NA","NA","2","legacy","Mann","1024","2","48000","-16","experiment","0","even","657265.923977","657194.614172","618173.975945","618173.524141","NA","NA","560425.660133","574161.808968","NA","656448.261023","NA","NA","NA","NA","NA","NA","NA","657581.570148","NA","NA","NA","657265.723944","NA","560490.360975","NA","NA","NA","NA","656436.879158","NA","Tutorial: Gaze cuing","0","0","0","yes","1024"
"undefined","undefined","undefined","undefined","white","no","1","rechts","links","psycho","psycho","psycho","0","uniform","NA","NA","z","60","60","1","1","NA","NA","0","0","NA","60","NA","NA","NA","NA","NA","NA","NA","60","NA","0","NA","60","NA","0","0","NA","1","NA","60","NA","Tue Feb 13 14:51:50 2018","The main experiment item","yes","","Python Experiment.osexp","/Users/johannaschuller/Documents/Uni/Master/Erstes_Semester/Python/Pruefungsleistung","no","mono","no","18","no","black","no","Ok","NA","no","Female","768","psycho","/Users/johannaschuller/Documents/Uni/Master/Erstes_Semester/Python/Pruefungsleistung/Data/subject-0.csv","psycho","Interactive Ising","3.0.7","0","z","NA","NA","NA","NA","space","NA","309.417963028","NA","NA","NA","NA","10246.3171482","NA","NA","NA","2","legacy","Frau","1024","2","48000","-16","experiment","0","even","658582.844019","658495.918036","618173.975945","618173.524141","NA","NA","560425.660133","574161.808968","NA","657749.417067","NA","NA","NA","NA","NA","NA","NA","658894.557953","NA","NA","NA","658582.646132","NA","560490.360975","NA","NA","NA","NA","657732.99098","NA","Tutorial: Gaze cuing","0","0","0","yes","1024"
"undefined","undefined","undefined","undefined","white","no","0","links","rechts","psycho","psycho","psycho","0","uniform","NA","NA","z","61","61","1","1","NA","NA","0","0","NA","61","NA","NA","NA","NA","NA","NA","NA","61","NA","0","NA","61","NA","0","0","NA","1","NA","61","NA","Tue Feb 13 14:51:50 2018","The main experiment item","yes","","Python Experiment.osexp","/Users/johannaschuller/Documents/Uni/Master/Erstes_Semester/Python/Pruefungsleistung","no","mono","no","18","no","black","no","Ok","NA","no","Female","768","psycho","/Users/johannaschuller/Documents/Uni/Master/Erstes_Semester/Python/Pruefungsleistung/Data/subject-0.csv","psycho","Interactive Ising","3.0.7","0","z","NA","NA","NA","NA","space","NA","310.909032822","NA","NA","NA","NA","10246.3171482","NA","NA","NA","2","legacy","Frau","1024","2","48000","-16","experiment","0","even","659866.292953","659795.632124","618173.975945","618173.524141","NA","NA","560425.660133","574161.808968","NA","659049.242973","NA","NA","NA","NA","NA","NA","NA","660179.661989","NA","NA","NA","659866.093159","NA","560490.360975","NA","NA","NA","NA","659042.473078","NA","Tutorial: Gaze cuing","0","0","0","yes","1024"
"undefined","undefined","undefined","undefined","white","no","0","rechts","rechts","psycho","psycho","psycho","0","uniform","NA","NA","m","62","62","1","1","NA","NA","0","0","NA","62","NA","NA","NA","NA","NA","NA","NA","62","NA","0","NA","62","NA","0","0","NA","1","NA","62","NA","Tue Feb 13 14:51:50 2018","The main experiment item","yes","","Python Experiment.osexp","/Users/johannaschuller/Documents/Uni/Master/Erstes_Semester/Python/Pruefungsleistung","no","mono","no","18","no","black","no","Ok","NA","no","Female","768","psycho","/Users/johannaschuller/Documents/Uni/Master/Erstes_Semester/Python/Pruefungsleistung/Data/subject-0.csv","psycho","Interactive Ising","3.0.7","0","m","NA","NA","NA","NA","space","NA","378.288030624","NA","NA","NA","NA","10246.3171482","NA","NA","NA","2","legacy","Mann","1024","2","48000","-16","experiment","0","even","661165.966988","661095.894098","618173.975945","618173.524141","NA","NA","560425.660133","574161.808968","NA","660349.411964","NA","NA","NA","NA","NA","NA","NA","661546.659946","NA","NA","NA","661165.768147","NA","560490.360975","NA","NA","NA","NA","660334.76615","NA","Tutorial: Gaze cuing","0","0","0","yes","1024"
"undefined","undefined","undefined","undefined","white","no","0","links","rechts","psycho","psycho","psycho","0","uniform","NA","NA","m","63","63","1","1","NA","NA","0","0","NA","63","NA","NA","NA","NA","NA","NA","NA","63","NA","0","NA","63","NA","0","0","NA","1","NA","63","NA","Tue Feb 13 14:51:50 2018","The main experiment item","yes","","Python Experiment.osexp","/Users/johannaschuller/Documents/Uni/Master/Erstes_Semester/Python/Pruefungsleistung","no","mono","no","18","no","black","no","Ok","NA","no","Female","768","psycho","/Users/johannaschuller/Documents/Uni/Master/Erstes_Semester/Python/Pruefungsleistung/Data/subject-0.csv","psycho","Interactive Ising","3.0.7","0","m","NA","NA","NA","NA","space","NA","334.568023682","NA","NA","NA","NA","10246.3171482","NA","NA","NA","2","legacy","Mann","1024","2","48000","-16","experiment","0","even","662532.64308","662462.255001","618173.975945","618173.524141","NA","NA","560425.660133","574161.808968","NA","661715.918064","NA","NA","NA","NA","NA","NA","NA","662869.54999","NA","NA","NA","662532.500982","NA","560490.360975","NA","NA","NA","NA","661694.633007","NA","Tutorial: Gaze cuing","0","0","0","yes","1024"
